image_shown,OS,image_selection.stopped,mouse_3.y,instructions.stopped,trials.thisIndex,key_resp_2.rt,expName,trial.started,key_resp_2.keys,image1_location,consent_form.started,image2_location,date,key_resp_3.keys,participant,blank_screen.stopped,mouse_2.clicked_name,welcome.started,mouse_2.midButton,consent_form.stopped,frameRate,__session,mouse_3.midButton,__experimentName,trial.stopped,condition,key_resp_2.duration,psychopyVersion,trials.thisRepN,mouse_2.x,trials.thisN,mouse.midButton,prompt1,finished_experiment.stopped,key_resp.keys,mouse_3.rightButton,key_resp.rt,mouse_3.x,key_resp.duration,audio_prompt,image_to_select1,trials.ran,image2_label,__participant,mouse.leftButton,blank_screen.started,mouse_2.rightButton,mouse_3.leftButton,image_to_select2,mouse.x,mouse_3.time,instructions.started,audio_text,finished_experiment.started,mouse_2.y,image1_label,mouse_2.leftButton,text1,trials.thisTrialN,__datetime,key_resp_3.rt,image_selection.started,mouse.rightButton,mouse.y,welcome.stopped,session
﻿known_objects/cup.png,MacIntel,6.114000000000001,,,1,,Metalinguistic Conjunctives,0.0032000000476841706,,left,,right,2024-05-17_15h37.31.532,,ashton,6.613399999856949,image_3,,0,,59.88023952095548,001,,metalinguistic_conjunctives_final,3.630200000047683,or,,2024.1.4,0,0.4242697010869565,0,0,Choose the hane.,,,,,,,audio/audio_prompt/amp_normed/Cup_or_Hane.wav,NOUN-2-600DPI/2003-600.jpg,1,cup,PARTICIPANT,1,6.11439999985695,0,,known_objects/cup.png,-0.026736582880434782,,,audio/audio_text/amp_normed/Cup_or_Hane.wav,,0.023263417119565217,hane,1,This is a cup or a hane.,0,2024-05-17_15h37.21.772,,3.6307000000476854,0,-0.03208220108695652,,001
﻿NOUN-2-600DPI/2007-600.jpg,MacIntel,11.963299999952316,,,3,,Metalinguistic Conjunctives,6.614799999952314,,left,,right,2024-05-17_15h37.31.532,,ashton,12.463200000047681,image_2,,0,,59.88023952095548,001,,metalinguistic_conjunctives_final,8.980200000047684,label,,2024.1.4,0,-0.4688688858695652,1,0,Choose the wupt.,,,,,,,audio/audio_prompt/amp_normed/Wupt.wav,NOUN-2-600DPI/2007-600.jpg,1,headphones,PARTICIPANT,1,11.9635,0,,known_objects/headphones.png,0.016257642663043477,,,audio/audio_text/amp_normed/Wupt.wav,,0.012678328804347825,wupt,1,This is a wupt.,1,2024-05-17_15h37.21.772,,8.9805,0,0.02834578804347826,,001
﻿known_objects/baseball.png,MacIntel,18.063200000047683,,,0,,Metalinguistic Conjunctives,12.463999999999999,,left,,right,2024-05-17_15h37.31.532,,ashton,18.563,image_3,,0,,59.88023952095548,001,,metalinguistic_conjunctives_final,15.713099999904632,and,,2024.1.4,0,0.5025985054347826,2,0,Choose the beag.,,,,,,,audio/audio_prompt/amp_normed/Baseball_and_Beag.wav,NOUN-2-600DPI/2015-600.jpg,1,baseball,PARTICIPANT,1,18.063299999952317,0,,known_objects/baseball.png,0.032167119565217395,,,audio/audio_text/amp_normed/Baseball_and_Beag.wav,,-0.03268936820652174,beag,1,This is a baseball and a beag.,2,2024-05-17_15h37.21.772,,15.71339999985695,0,-0.029780910326086957,,001
﻿known_objects/car.png,MacIntel,24.647200000047686,,,2,,Metalinguistic Conjunctives,18.563799999952316,,right,,left,2024-05-17_15h37.31.532,,ashton,25.14639999985695,image_2,,0,,59.88023952095548,001,,metalinguistic_conjunctives_final,22.47970000004769,not,,2024.1.4,0,-0.49001783288043477,3,0,Choose the zav.,,,,,,,audio/audio_prompt/amp_normed/Car_not_Zav.wav,NOUN-2-600DPI/2005-600.jpg,1,car,PARTICIPANT,1,24.64729999995232,0,,known_objects/car.png,0.041469938858695654,,,audio/audio_text/amp_normed/Car_not_Zav.wav,,0.010776154891304348,zav,1,"This is a car, not a zav.",3,2024-05-17_15h37.21.772,,22.47989999985695,0,0.046085258152173916,,001
﻿known_objects/clock.png,MacIntel,30.113099999904637,,,5,,Metalinguistic Conjunctives,25.147099999904636,,left,,right,2024-05-17_15h37.31.532,,ashton,30.613000000000003,image_3,,0,,59.88023952095548,001,,metalinguistic_conjunctives_final,28.196200000047686,or,,2024.1.4,0,-0.43845533288043476,4,0,Choose the dite.,,,,,,,audio/audio_prompt/amp_normed/Clock_or_Dite.wav,NOUN-2-600DPI/2013-600.jpg,1,clock,PARTICIPANT,1,30.11329999995232,0,,known_objects/clock.png,0.031148097826086955,,,audio/audio_text/amp_normed/Clock_or_Dite.wav,,-0.008627717391304348,dite,1,This is a clock or a dite.,4,2024-05-17_15h37.21.772,,28.196399999856954,0,0.028630264945652174,,001
﻿known_objects/camera.png,MacIntel,35.62970000004769,,,9,,Metalinguistic Conjunctives,30.613599999904633,,right,,left,2024-05-17_15h37.31.532,,ashton,36.12950000000001,image_2,,0,,59.88023952095548,001,,metalinguistic_conjunctives_final,33.16320000004768,mutual_ex,,2024.1.4,0,-0.5011251698369565,5,0,Choose the hux.,,,,,,,audio/audio_prompt/amp_normed/Camera.wav,NOUN-2-600DPI/2041-600.jpg,1,camera,PARTICIPANT,1,35.629899999856946,0,,known_objects/camera.png,0.022613790760869567,,,audio/audio_text/amp_normed/Camera.wav,,-0.006385869565217392,hux,1,This is a camera.,5,2024-05-17_15h37.21.772,,33.1635,0,-0.03930876358695652,,001
﻿known_objects/backpack.png,MacIntel,43.16270000004769,,,6,,Metalinguistic Conjunctives,36.13009999990463,,left,,right,2024-05-17_15h37.31.532,,ashton,43.66309999990463,image_2,,0,,59.88023952095548,001,,metalinguistic_conjunctives_final,39.94620000004768,not,,2024.1.4,0,0.48268087635869567,6,0,Choose the pank.,,,,,,,audio/audio_prompt/amp_normed/Backpack_not_Pank.wav,NOUN-2-600DPI/2014-600.jpg,1,backpack,PARTICIPANT,1,43.16279999995231,0,,known_objects/backpack.png,-0.060895040760869566,,,audio/audio_text/amp_normed/Backpack_not_Pank.wav,,-0.019794497282608695,pank,1,"This is a backpack, not a pank.",6,2024-05-17_15h37.21.772,,39.94639999985695,0,-0.005430536684782609,,001
﻿known_objects/phone.png,MacIntel,49.04609999990464,,,8,,Metalinguistic Conjunctives,43.66359999990463,,left,,right,2024-05-17_15h37.31.532,,ashton,49.54529999995232,image_2,,0,,59.88023952095548,001,,metalinguistic_conjunctives_final,46.396099999904635,mutual_ex,,2024.1.4,0,-0.4675399116847826,7,0,Choose the bem.,,,,,,,audio/audio_prompt/amp_normed/Phone.wav,NOUN-2-600DPI/2030-600.jpg,1,phone,PARTICIPANT,1,49.046399999856945,0,,known_objects/phone.png,0.014538043478260869,,,audio/audio_text/amp_normed/Phone.wav,,-0.010508661684782608,bem,1,This is a phone.,7,2024-05-17_15h37.21.772,,46.39629999995232,0,0.03784391983695652,,001
﻿NOUN-2-600DPI/2017-600.jpg,MacIntel,53.929399999856955,,,7,,Metalinguistic Conjunctives,49.54589999985696,,right,,left,2024-05-17_15h37.31.532,,ashton,54.42939999985694,image_2,,0,,59.88023952095548,001,,metalinguistic_conjunctives_final,51.745899999856945,label,,2024.1.4,0,-0.45576596467391306,8,0,Choose the Jang.,,,,,,,audio/audio_prompt/amp_normed/Jang.wav,NOUN-2-600DPI/2017-600.jpg,1,wrench,PARTICIPANT,1,53.929500000000004,0,,known_objects/wrench.png,0.00567680027173913,,,audio/audio_text/amp_normed/Jang.wav,,-0.015115489130434782,jang,1,This is a jang.,8,2024-05-17_15h37.21.772,,51.74600000000001,0,0.00399116847826087,,001
﻿known_objects/lamp.png,MacIntel,59.179299999952306,,,4,,Metalinguistic Conjunctives,54.42989999985694,,right,,left,2024-05-17_15h37.31.532,,ashton,59.679299999952306,image_3,,0,,59.88023952095548,001,,metalinguistic_conjunctives_final,57.14599999999999,and,,2024.1.4,0,-0.49244650135869567,9,0,Choose the fimp.,,,,,,,audio/audio_prompt/amp_normed/Lamp_and_Fimp.wav,NOUN-2-600DPI/2010-600.jpg,1,lamp,PARTICIPANT,1,59.17939999985694,0,,known_objects/lamp.png,0.0010402513586956522,,,audio/audio_text/amp_normed/Lamp_and_Fimp.wav,,-0.03679942255434782,fimp,1,This is a lamp and a fimp.,9,2024-05-17_15h37.21.772,,57.14620000004767,0,-0.020193614130434783,,001
﻿,MacIntel,,,,,,Metalinguistic Conjunctives,,,,,,2024-05-17_15h37.31.532,,ashton,,,,,,59.88023952095548,001,,metalinguistic_conjunctives_final,,,,2024.1.4,,,,,,61.412099999904626,return,,1.679000000000002,,,,,,,PARTICIPANT,,,,,,,,,,59.68009999990463,,,,,,2024-05-17_15h37.21.772,,,,,,001
﻿known_objects/camera.png,MacIntel,14.366799999998875,,,9,,Metalinguistic Conjunctives,0.0047999999988803665,,right,,left,2024-05-22_12h57.21.491,,sdf,14.856299999998896,image_2,,0,,60.24096385550618,001,,metalinguistic_conjunctives_final,9.511599999999618,mutual_ex,,2024.1.4,0,-0.5172231038411458,0,0,Choose the hux.,,,,,,,audio/audio_prompt/amp_normed/Camera.wav,NOUN-2-600DPI/2041-600.jpg,1,camera,PARTICIPANT,1,14.367099999999624,0,,known_objects/camera.png,0.21527659098307292,,,audio/audio_text/amp_normed/Camera.wav,,-0.0020827399359809027,hux,1,This is a camera.,0,2024-05-22_12h54.44.746,,9.511799999998885,0,-0.23209754096137153,,001
﻿known_objects/cup.png,MacIntel,22.306099999999617,,,1,,Metalinguistic Conjunctives,14.857,,left,,right,2024-05-22_12h57.21.491,,sdf,22.806299999998885,image_3,,0,,60.24096385550618,001,,metalinguistic_conjunctives_final,19.205299999998886,or,,2024.1.4,0,-0.4808585272894965,1,0,Choose the hane.,,,,,,,audio/audio_prompt/amp_normed/Cup_or_Hane.wav,NOUN-2-600DPI/2003-600.jpg,1,cup,PARTICIPANT,1,22.30619999999925,0,,known_objects/cup.png,0.020444403754340278,,,audio/audio_text/amp_normed/Cup_or_Hane.wav,,0.016118706597222223,hane,1,This is a cup or a hane.,1,2024-05-22_12h54.44.746,,19.205400000000367,0,-0.31137432522243924,,001
﻿known_objects/backpack.png,MacIntel,29.188799999998878,,,6,,Metalinguistic Conjunctives,22.806599999999634,,left,,right,2024-05-22_12h57.21.491,,sdf,29.688799999998878,image_2,,0,,60.24096385550618,001,,metalinguistic_conjunctives_final,27.272099999999625,not,,2024.1.4,0,-0.3810548570421007,2,0,Choose the pank.,,,,,,,audio/audio_prompt/amp_normed/Backpack_not_Pank.wav,NOUN-2-600DPI/2014-600.jpg,1,backpack,PARTICIPANT,1,29.188900000000388,0,,known_objects/backpack.png,0.07776099310980902,,,audio/audio_text/amp_normed/Backpack_not_Pank.wav,,-0.03559917873806424,pank,1,"This is a backpack, not a pank.",2,2024-05-22_12h54.44.746,,27.272299999998893,0,-0.2876264784071181,,001
﻿NOUN-2-600DPI/2007-600.jpg,MacIntel,33.67279999999889,,,3,,Metalinguistic Conjunctives,29.689099999999627,,left,,right,2024-05-22_12h57.21.491,,sdf,34.17269999999925,image_2,,0,,60.24096385550618,001,,metalinguistic_conjunctives_final,32.03959999999964,label,,2024.1.4,0,-0.4302244398328993,3,0,Choose the wupt.,,,,,,,audio/audio_prompt/amp_normed/Wupt.wav,NOUN-2-600DPI/2007-600.jpg,1,headphones,PARTICIPANT,1,33.67290000000037,0,,known_objects/headphones.png,0.06753743489583333,,,audio/audio_text/amp_normed/Wupt.wav,,-0.10047611660427518,wupt,1,This is a wupt.,3,2024-05-22_12h54.44.746,,32.03969999999924,0,-0.32025587293836805,,001
﻿known_objects/phone.png,MacIntel,40.1225,,,8,,Metalinguistic Conjunctives,34.173,,right,,left,2024-05-22_12h57.21.491,,sdf,40.62319999999926,image_2,,0,,60.24096385550618,001,,metalinguistic_conjunctives_final,37.588900000000365,mutual_ex,,2024.1.4,0,-0.4416531032986111,4,0,Choose the bem.,,,,,,,audio/audio_prompt/amp_normed/Phone.wav,NOUN-2-600DPI/2030-600.jpg,1,phone,PARTICIPANT,1,40.122599999999636,0,,known_objects/phone.png,0.007308451334635416,,,audio/audio_text/amp_normed/Phone.wav,,-0.07104165818956164,bem,1,This is a phone.,4,2024-05-22_12h54.44.746,,37.589,0,-0.2979133605957031,,001
﻿known_objects/clock.png,MacIntel,47.073499999999996,,,5,,Metalinguistic Conjunctives,40.62329999999889,,right,,left,2024-05-22_12h57.21.491,,sdf,47.57309999999964,image_3,,0,,60.24096385550618,001,,metalinguistic_conjunctives_final,45.122799999998875,or,,2024.1.4,0,-0.40963829888237846,5,0,Choose the dite.,,,,,,,audio/audio_prompt/amp_normed/Clock_or_Dite.wav,NOUN-2-600DPI/2013-600.jpg,1,clock,PARTICIPANT,1,47.07369999999926,0,,known_objects/clock.png,0.10423414442274305,,,audio/audio_text/amp_normed/Clock_or_Dite.wav,,-0.07337205674913194,dite,1,This is a clock or a dite.,5,2024-05-22_12h54.44.746,,45.122900000000385,0,-0.36048143174913194,,001
﻿known_objects/lamp.png,MacIntel,55.090599999999625,,,4,,Metalinguistic Conjunctives,47.57319999999925,,right,,left,2024-05-22_12h57.21.491,,sdf,55.589699999999254,image_3,,0,,60.24096385550618,001,,metalinguistic_conjunctives_final,51.3895,and,,2024.1.4,0,-0.3500194973415799,6,0,Choose the fimp.,,,,,,,audio/audio_prompt/amp_normed/Lamp_and_Fimp.wav,NOUN-2-600DPI/2010-600.jpg,1,lamp,PARTICIPANT,1,55.09069999999926,0,,known_objects/lamp.png,0.13925221761067708,,,audio/audio_text/amp_normed/Lamp_and_Fimp.wav,,-0.10907135009765626,fimp,1,This is a lamp and a fimp.,6,2024-05-22_12h54.44.746,,51.38959999999963,0,-0.35062594943576386,,001
﻿known_objects/baseball.png,MacIntel,61.056599999999634,,,0,,Metalinguistic Conjunctives,55.59669999999926,,left,,right,2024-05-22_12h57.21.491,,sdf,61.55669999999927,image_3,,0,,60.24096385550618,001,,metalinguistic_conjunctives_final,59.49029999999888,and,,2024.1.4,0,-0.40379638671875,7,0,Choose the beag.,,,,,,,audio/audio_prompt/amp_normed/Baseball_and_Beag.wav,NOUN-2-600DPI/2015-600.jpg,1,baseball,PARTICIPANT,1,61.056599999999634,0,,known_objects/baseball.png,0.08403744167751737,,,audio/audio_text/amp_normed/Baseball_and_Beag.wav,,-0.06498506334092882,beag,1,This is a baseball and a beag.,7,2024-05-22_12h54.44.746,,59.49040000000036,0,-0.11963365342881944,,001
﻿NOUN-2-600DPI/2017-600.jpg,MacIntel,65.0735,,,7,,Metalinguistic Conjunctives,61.55690000000038,,left,,right,2024-05-22_12h57.21.491,,sdf,65.57329999999888,image_2,,0,,60.24096385550618,001,,metalinguistic_conjunctives_final,63.75649999999999,label,,2024.1.4,0,-0.3877460055881076,8,0,Choose the Jang.,,,,,,,audio/audio_prompt/amp_normed/Jang.wav,NOUN-2-600DPI/2017-600.jpg,1,wrench,PARTICIPANT,1,65.0735,0,,known_objects/wrench.png,0.028643798828125,,,audio/audio_text/amp_normed/Jang.wav,,-0.06760508219401042,jang,1,This is a jang.,8,2024-05-22_12h54.44.746,,63.75649999999999,0,-0.08514624701605902,,001
﻿known_objects/car.png,MacIntel,72.39019999999925,,,2,,Metalinguistic Conjunctives,65.5735,,left,,right,2024-05-22_12h57.21.491,,sdf,72.89040000000037,image_2,,0,,60.24096385550618,001,,metalinguistic_conjunctives_final,70.74100000000001,not,,2024.1.4,0,-0.3708246866861979,9,0,Choose the zav.,,,,,,,audio/audio_prompt/amp_normed/Car_not_Zav.wav,NOUN-2-600DPI/2005-600.jpg,1,car,PARTICIPANT,1,72.39029999999889,0,,known_objects/car.png,0.010751512315538194,,,audio/audio_text/amp_normed/Car_not_Zav.wav,,-0.02697482638888889,zav,1,"This is a car, not a zav.",9,2024-05-22_12h54.44.746,,70.74100000000001,0,-0.10965177747938368,,001
﻿,MacIntel,,,,,,Metalinguistic Conjunctives,,,,,,2024-05-22_12h57.21.491,,sdf,,,,,,60.24096385550618,001,,metalinguistic_conjunctives_final,,,,2024.1.4,,,,,,77.15809999999962,return,,4.246200000001124,,,,,,,PARTICIPANT,,,,,,,,,,72.89090000000039,,,,,,2024-05-22_12h54.44.746,,,,,,001
﻿,MacIntel,,,,,1.88279999995234,Metalinguistic Conjunctives,,return,,,,2024-06-18_22h14.25.577,,ashton,,,0.00040000009536811376,,,60.240963855400565,001,,metalinguistic_conjunctives_final,,,,2024.1.4,,,,,,,,,,,,,,,,PARTICIPANT,,,,,,,,,,,,,,,,2024-06-18_22h14.17.345,,,,,1.906499999999994,001
﻿,MacIntel,,-0.06359120244565217,,,,Metalinguistic Conjunctives,,,,1.906800000071513,,2024-06-18_22h14.25.577,,ashton,,,,,13.306200000047681,60.240963855400565,001,0,metalinguistic_conjunctives_final,,,,2024.1.4,,,,,,,,0,,-0.016461447010869566,,,,,,PARTICIPANT,,,,1,,,10.882099999904625,,,,,,,,,2024-06-18_22h14.17.345,,,,,,001
﻿,MacIntel,,,16.039600000023825,,,Metalinguistic Conjunctives,,,,,,2024-06-18_22h14.25.577,return,ashton,,,,,,60.240963855400565,001,,metalinguistic_conjunctives_final,,,,2024.1.4,,,,,,,,,,,,,,,,PARTICIPANT,,,,,,,,13.3065,,,,,,,,2024-06-18_22h14.17.345,2.7102000000477062,,,,,001
﻿known_objects/car.png,MacIntel,22.19010000002382,,,2,,Metalinguistic Conjunctives,16.047100000023846,,left,,right,2024-06-18_22h14.25.577,,ashton,22.689300000071512,image_2,,0,,60.240963855400565,001,,metalinguistic_conjunctives_final,20.039300000071506,not,,2024.1.4,0,-0.5214334239130435,0,0,Choose the zav.,,,,,,,audio/audio_prompt/amp_normed/Car_not_Zav.wav,NOUN-2-600DPI/2005-600.jpg,1,car,PARTICIPANT,1,22.190700000047684,0,,known_objects/car.png,0.07027853260869565,,,audio/audio_text/amp_normed/Car_not_Zav.wav,,-0.006840183423913043,zav,1,"This is a car, not a zav.",0,2024-06-18_22h14.17.345,,20.039800000071523,0,-0.053214164402173914,,001
﻿known_objects/clock.png,MacIntel,28.189100000023842,,,5,,Metalinguistic Conjunctives,22.690499999999986,,left,,right,2024-06-18_22h14.25.577,,ashton,28.68960000002383,image_3,,0,,60.240963855400565,001,,metalinguistic_conjunctives_final,25.572200000047673,or,,2024.1.4,0,0.5092985733695652,1,0,Choose the dite.,,,,,,,audio/audio_prompt/amp_normed/Clock_or_Dite.wav,NOUN-2-600DPI/2013-600.jpg,1,clock,PARTICIPANT,1,28.18940000009536,0,,known_objects/clock.png,-0.4450577445652174,,,audio/audio_text/amp_normed/Clock_or_Dite.wav,,0.03722826086956522,dite,1,This is a clock or a dite.,1,2024-06-18_22h14.17.345,,25.57249999999999,0,-0.01875,,001
﻿known_objects/camera.png,MacIntel,32.87260000002382,,,9,,Metalinguistic Conjunctives,28.690499999999986,,left,,right,2024-06-18_22h14.25.577,,ashton,33.37260000002382,image_2,,0,,60.240963855400565,001,,metalinguistic_conjunctives_final,31.555300000071526,mutual_ex,,2024.1.4,0,-0.4562967051630435,2,0,Choose the hux.,,,,,,,audio/audio_prompt/amp_normed/Camera.wav,NOUN-2-600DPI/2041-600.jpg,1,camera,PARTICIPANT,1,32.87280000007152,0,,known_objects/camera.png,-0.07028702445652174,,,audio/audio_text/amp_normed/Camera.wav,,0.006797724184782608,hux,1,This is a camera.,2,2024-06-18_22h14.17.345,,31.555300000071526,0,0.02130180027173913,,001
﻿known_objects/lamp.png,MacIntel,37.271600000023824,,,4,,Metalinguistic Conjunctives,33.37310000002384,,right,,left,2024-06-18_22h14.25.577,,ashton,37.77249999999998,image_3,,0,,60.240963855400565,001,,metalinguistic_conjunctives_final,35.872400000095354,and,,2024.1.4,0,0.4908967391304348,3,0,Choose the fimp.,,,,,,,audio/audio_prompt/amp_normed/Lamp_and_Fimp.wav,NOUN-2-600DPI/2010-600.jpg,1,lamp,PARTICIPANT,1,37.27180000007152,0,,known_objects/lamp.png,-0.07089419157608695,,,audio/audio_text/amp_normed/Lamp_and_Fimp.wav,,0.026006283967391304,fimp,1,This is a lamp and a fimp.,3,2024-06-18_22h14.17.345,,35.8725,0,-0.006415591032608695,,001
﻿NOUN-2-600DPI/2017-600.jpg,MacIntel,41.622300000071505,,,7,,Metalinguistic Conjunctives,37.772999999999996,,left,,right,2024-06-18_22h14.25.577,,ashton,42.1225,image_2,,0,,60.240963855400565,001,,metalinguistic_conjunctives_final,40.27220000004766,label,,2024.1.4,0,0.46847826086956523,4,0,Choose the Jang.,,,,,,,audio/audio_prompt/amp_normed/Jang.wav,NOUN-2-600DPI/2017-600.jpg,1,wrench,PARTICIPANT,1,41.622400000095354,0,,known_objects/wrench.png,-0.08728345788043479,,,audio/audio_text/amp_normed/Jang.wav,,0.03249830163043478,jang,1,This is a jang.,4,2024-06-18_22h14.17.345,,40.27230000007151,0,-0.05744310461956522,,001
﻿known_objects/backpack.png,MacIntel,46.65560000002384,,,6,,Metalinguistic Conjunctives,42.12310000002384,,right,,left,2024-06-18_22h14.25.577,,ashton,47.15580000007151,image_2,,0,,60.240963855400565,001,,metalinguistic_conjunctives_final,45.07220000004767,not,,2024.1.4,0,-0.4562287703804348,5,0,Choose the pank.,,,,,,,audio/audio_prompt/amp_normed/Backpack_not_Pank.wav,NOUN-2-600DPI/2014-600.jpg,1,backpack,PARTICIPANT,1,46.65570000004769,0,,known_objects/backpack.png,-0.08864639945652174,,,audio/audio_text/amp_normed/Backpack_not_Pank.wav,,-0.03917289402173913,pank,1,"This is a backpack, not a pank.",5,2024-06-18_22h14.17.345,,45.07240000009537,0,-0.21889436141304347,,001
﻿known_objects/phone.png,MacIntel,50.80599999999998,,,8,,Metalinguistic Conjunctives,47.156400000095346,,right,,left,2024-06-18_22h14.25.577,,ashton,51.305600000023844,image_2,,0,,60.240963855400565,001,,metalinguistic_conjunctives_final,49.17220000004767,mutual_ex,,2024.1.4,0,0.5058041779891305,6,0,Choose the bem.,,,,,,,audio/audio_prompt/amp_normed/Phone.wav,NOUN-2-600DPI/2030-600.jpg,1,phone,PARTICIPANT,1,50.80620000004768,0,,known_objects/phone.png,-0.07264351222826088,,,audio/audio_text/amp_normed/Phone.wav,,-0.037372622282608695,bem,1,This is a phone.,6,2024-06-18_22h14.17.345,,49.172400000095365,0,-0.16851222826086956,,001
﻿known_objects/baseball.png,MacIntel,55.42220000004767,,,0,,Metalinguistic Conjunctives,51.30610000002383,,right,,left,2024-06-18_22h14.25.577,,ashton,55.922300000071516,image_3,,0,,60.240963855400565,001,,metalinguistic_conjunctives_final,53.70540000009535,and,,2024.1.4,0,-0.4920728600543478,7,0,Choose the beag.,,,,,,,audio/audio_prompt/amp_normed/Baseball_and_Beag.wav,NOUN-2-600DPI/2015-600.jpg,1,baseball,PARTICIPANT,1,55.422300000071516,0,,known_objects/baseball.png,-0.05567680027173913,,,audio/audio_text/amp_normed/Baseball_and_Beag.wav,,-0.011485224184782608,beag,1,This is a baseball and a beag.,7,2024-06-18_22h14.17.345,,53.7055,0,-0.16876698369565218,,001
﻿NOUN-2-600DPI/2007-600.jpg,MacIntel,59.30540000009535,,,3,,Metalinguistic Conjunctives,55.922800000071504,,right,,left,2024-06-18_22h14.25.577,,ashton,59.805600000023844,image_2,,0,,60.240963855400565,001,,metalinguistic_conjunctives_final,58.27220000004766,label,,2024.1.4,0,0.4916610054347826,8,0,Choose the wupt.,,,,,,,audio/audio_prompt/amp_normed/Wupt.wav,NOUN-2-600DPI/2007-600.jpg,1,headphones,PARTICIPANT,1,59.305700000047665,0,,known_objects/headphones.png,-0.014979619565217392,,,audio/audio_text/amp_normed/Wupt.wav,,0.06934867527173913,wupt,1,This is a wupt.,8,2024-06-18_22h14.17.345,,58.27230000007151,0,-0.1446501358695652,,001
﻿known_objects/cup.png,MacIntel,64.13880000007151,,,1,,Metalinguistic Conjunctives,59.8063000000715,,left,,right,2024-06-18_22h14.25.577,,ashton,64.63870000004766,image_3,,0,,60.240963855400565,001,,metalinguistic_conjunctives_final,62.188700000047675,or,,2024.1.4,0,-0.4984290081521739,9,0,Choose the hane.,,,,,,,audio/audio_prompt/amp_normed/Cup_or_Hane.wav,NOUN-2-600DPI/2003-600.jpg,1,cup,PARTICIPANT,1,64.13899999999998,0,,known_objects/cup.png,0.023068104619565218,,,audio/audio_text/amp_normed/Cup_or_Hane.wav,,0.013531759510869565,hane,1,This is a cup or a hane.,9,2024-06-18_22h14.17.345,,62.188900000095344,0,-0.1950874660326087,,001
﻿,MacIntel,,,,,,Metalinguistic Conjunctives,,,,,,2024-06-18_22h14.25.577,,ashton,,,,,,60.240963855400565,001,,metalinguistic_conjunctives_final,,,,2024.1.4,,,,,,65.7225,return,,1.0273999999761543,,,,,,,PARTICIPANT,,,,,,,,,,64.63960000002382,,,,,,2024-06-18_22h14.17.345,,,,,,001
﻿,Win32,,,,,48.229,Metalinguistic Conjunctives,,return,,,,2024-07-10_00h26.28.571,,,,,0.00020000028610667187,,,144.9275362320063,001,,metalinguistic_conjunctives_final,,,,2024.1.5,,,,,,,,,,,,,,,,PARTICIPANT,,,,,,,,,,,,,,,,2024-07-10_00h25.49.833,,,,,48.23360000038146,001
﻿,Win32,,-0.412962962962963,,,,Metalinguistic Conjunctives,,,,48.23370000028609,,2024-07-10_00h26.28.571,,,,,,,94.88480000019075,144.9275362320063,001,0,metalinguistic_conjunctives_final,,,,2024.1.5,,,,,,,,0,,0.008333333333333333,,,,,,PARTICIPANT,,,,1,,,46.135800000190756,,,,,,,,,2024-07-10_00h25.49.833,,,,,,001
﻿,Win32,,,117.6407000002861,,,Metalinguistic Conjunctives,,,,,,2024-07-10_00h26.28.571,return,,,,,,,144.9275362320063,001,,metalinguistic_conjunctives_final,,,,2024.1.5,,,,,,,,,,,,,,,,PARTICIPANT,,,,,,,,94.88490000009537,,,,,,,,2024-07-10_00h25.49.833,22.747600000381453,,,,,001
﻿known_objects/cup.png,Win32,136.19990000009537,,,1,,Metalinguistic Conjunctives,117.64280000019073,,right,,left,2024-07-10_00h26.28.571,,,136.69980000019075,image_3,,0,,144.9275362320063,001,,metalinguistic_conjunctives_final,132.853,or,,2024.1.5,0,0.5370370370370371,0,0,Choose the hane.,,,,,,,audio/audio_prompt/amp_normed/Cup_or_Hane.wav,NOUN-2-600DPI/2003-600.jpg,1,cup,PARTICIPANT,1,136.20000000000002,0,,known_objects/cup.png,0.4111111111111111,,,audio/audio_text/amp_normed/Cup_or_Hane.wav,,-0.017592592592592594,hane,1,This is a cup or a hane.,0,2024-07-10_00h25.49.833,,132.8531000003815,0,-0.26851851851851855,,001
﻿known_objects/clock.png,Win32,147.54190000009538,,,5,,Metalinguistic Conjunctives,136.70000000000002,,left,,right,2024-07-10_00h26.28.571,,,148.042,image_3,,0,,144.9275362320063,001,,metalinguistic_conjunctives_final,144.3747000002861,or,,2024.1.5,0,-0.47685185185185186,1,0,Choose the dite.,,,,,,,audio/audio_prompt/amp_normed/Clock_or_Dite.wav,NOUN-2-600DPI/2013-600.jpg,1,clock,PARTICIPANT,1,147.542,0,,known_objects/clock.png,0.475,,,audio/audio_text/amp_normed/Clock_or_Dite.wav,,0.014814814814814815,dite,1,This is a clock or a dite.,1,2024-07-10_00h25.49.833,,144.37490000009538,0,-0.125,,001
﻿known_objects/car.png,Win32,156.5297000002861,,,2,,Metalinguistic Conjunctives,148.04600000000002,,left,,right,2024-07-10_00h26.28.571,,,157.0296000003815,image_2,,0,,144.9275362320063,001,,metalinguistic_conjunctives_final,153.3626000003815,not,,2024.1.5,0,-0.45555555555555555,2,0,Choose the zav.,,,,,,,audio/audio_prompt/amp_normed/Car_not_Zav.wav,NOUN-2-600DPI/2005-600.jpg,1,car,PARTICIPANT,1,156.52980000019073,0,,known_objects/car.png,0.35,,,audio/audio_text/amp_normed/Car_not_Zav.wav,,-0.03148148148148148,zav,1,"This is a car, not a zav.",2,2024-07-10_00h25.49.833,,153.36280000019073,0,-0.3194444444444444,,001
﻿known_objects/lamp.png,Win32,163.23910000038148,,,4,,Metalinguistic Conjunctives,157.03330000019074,,right,,left,2024-07-10_00h26.28.571,,,163.7392000002861,image_3,,0,,144.9275362320063,001,,metalinguistic_conjunctives_final,160.7664000000954,and,,2024.1.5,0,0.5138888888888888,3,0,Choose the fimp.,,,,,,,audio/audio_prompt/amp_normed/Lamp_and_Fimp.wav,NOUN-2-600DPI/2010-600.jpg,1,lamp,PARTICIPANT,1,163.23910000038148,0,,known_objects/lamp.png,0.412962962962963,,,audio/audio_text/amp_normed/Lamp_and_Fimp.wav,,-0.05648148148148148,fimp,1,This is a lamp and a fimp.,3,2024-07-10_00h25.49.833,,160.7666000003815,0,-0.36944444444444446,,001
﻿NOUN-2-600DPI/2017-600.jpg,Win32,168.77480000019074,,,7,,Metalinguistic Conjunctives,163.74310000038147,,left,,right,2024-07-10_00h26.28.571,,,169.27490000009539,image_2,,0,,144.9275362320063,001,,metalinguistic_conjunctives_final,166.3926000003815,label,,2024.1.5,0,0.5851851851851851,4,0,Choose the Jang.,,,,,,,audio/audio_prompt/amp_normed/Jang.wav,NOUN-2-600DPI/2017-600.jpg,1,wrench,PARTICIPANT,1,168.77490000009539,0,,known_objects/wrench.png,0.41388888888888886,,,audio/audio_text/amp_normed/Jang.wav,,-0.014814814814814815,jang,1,This is a jang.,4,2024-07-10_00h25.49.833,,166.3926000003815,0,-0.3296296296296296,,001
﻿known_objects/camera.png,Win32,176.1095,,,9,,Metalinguistic Conjunctives,169.2786000003815,,right,,left,2024-07-10_00h26.28.571,,,176.60960000038148,image_2,,0,,144.9275362320063,001,,metalinguistic_conjunctives_final,172.14360000038147,mutual_ex,,2024.1.5,0,-0.5111111111111111,5,0,Choose the hux.,,,,,,,audio/audio_prompt/amp_normed/Camera.wav,NOUN-2-600DPI/2041-600.jpg,1,camera,PARTICIPANT,1,176.1095,0,,known_objects/camera.png,0.13240740740740742,,,audio/audio_text/amp_normed/Camera.wav,,0.009259259259259259,hux,1,This is a camera.,5,2024-07-10_00h25.49.833,,172.14370000028612,0,-0.18333333333333332,,001
﻿NOUN-2-600DPI/2007-600.jpg,Win32,182.61780000019075,,,3,,Metalinguistic Conjunctives,176.614,,right,,left,2024-07-10_00h26.28.571,,,183.1177000002861,image_2,,0,,144.9275362320063,001,,metalinguistic_conjunctives_final,179.6727000002861,label,,2024.1.5,0,0.5537037037037037,6,0,Choose the wupt.,,,,,,,audio/audio_prompt/amp_normed/Wupt.wav,NOUN-2-600DPI/2007-600.jpg,1,headphones,PARTICIPANT,1,182.618,0,,known_objects/headphones.png,0.2796296296296296,,,audio/audio_text/amp_normed/Wupt.wav,,0.027777777777777776,wupt,1,This is a wupt.,6,2024-07-10_00h25.49.833,,179.6727000002861,0,-0.30648148148148147,,001
﻿known_objects/backpack.png,Win32,189.86210000038147,,,6,,Metalinguistic Conjunctives,183.12140000009538,,left,,right,2024-07-10_00h26.28.571,,,190.36210000038147,image_2,,0,,144.9275362320063,001,,metalinguistic_conjunctives_final,187.40330000019074,not,,2024.1.5,0,0.5944444444444444,7,0,Choose the pank.,,,,,,,audio/audio_prompt/amp_normed/Backpack_not_Pank.wav,NOUN-2-600DPI/2014-600.jpg,1,backpack,PARTICIPANT,1,189.86210000038147,0,,known_objects/backpack.png,0.1398148148148148,,,audio/audio_text/amp_normed/Backpack_not_Pank.wav,,0.011111111111111112,pank,1,"This is a backpack, not a pank.",7,2024-07-10_00h25.49.833,,187.4034000000954,0,-0.3175925925925926,,001
﻿known_objects/baseball.png,Win32,196.52980000019073,,,0,,Metalinguistic Conjunctives,190.36220000028612,,left,,right,2024-07-10_00h26.28.571,,,197.02990000009538,image_3,,0,,144.9275362320063,001,,metalinguistic_conjunctives_final,194.0227000002861,and,,2024.1.5,0,0.5064814814814815,8,0,Choose the beag.,,,,,,,audio/audio_prompt/amp_normed/Baseball_and_Beag.wav,NOUN-2-600DPI/2015-600.jpg,1,baseball,PARTICIPANT,1,196.52980000019073,0,,known_objects/baseball.png,0.23055555555555557,,,audio/audio_text/amp_normed/Baseball_and_Beag.wav,,-0.03425925925925926,beag,1,This is a baseball and a beag.,8,2024-07-10_00h25.49.833,,194.02290000009538,0,-0.30277777777777776,,001
﻿known_objects/phone.png,Win32,203.20470000028612,,,8,,Metalinguistic Conjunctives,197.03360000038148,,right,,left,2024-07-10_00h26.28.571,,,203.70460000038148,image_2,,0,,144.9275362320063,001,,metalinguistic_conjunctives_final,200.61390000009538,mutual_ex,,2024.1.5,0,-0.49166666666666664,9,0,Choose the bem.,,,,,,,audio/audio_prompt/amp_normed/Phone.wav,NOUN-2-600DPI/2030-600.jpg,1,phone,PARTICIPANT,1,203.20480000019074,0,,known_objects/phone.png,0.14537037037037037,,,audio/audio_text/amp_normed/Phone.wav,,-0.03888888888888889,bem,1,This is a phone.,9,2024-07-10_00h25.49.833,,200.61390000009538,0,-0.3,,001
﻿,Win32,,,,,,Metalinguistic Conjunctives,,,,,,2024-07-10_00h26.28.571,,,,,,,,144.9275362320063,001,,metalinguistic_conjunctives_final,,,,2024.1.5,,,,,,206.108,return,,2.3920000000000243,,0.00019999980924012561,,,,,PARTICIPANT,,,,,,,,,,203.70850000000002,,,,,,2024-07-10_00h25.49.833,,,,,,001
﻿,MacIntel,,,,,4.8215,Metalinguistic Conjunctives,,return,,,,2024-07-09_22h34.10.239,,,,,0.00020000000298026066,,,30.001200048003255,001,,metalinguistic_conjunctives_final,,,,2024.1.5,,,,,,,,,,,,,,,,PARTICIPANT,,,,,,,,,,,,,,,,2024-07-09_22h33.45.575,,,,,4.882799999997019,001
﻿,MacIntel,,-0.03867621527777778,,,,Metalinguistic Conjunctives,,,,4.883099999994037,,2024-07-09_22h34.10.239,,,,,,,16.14529999999702,30.001200048003255,001,0,metalinguistic_conjunctives_final,,,,2024.1.5,,,,,,,,0,,-0.05807291666666667,,,,,,PARTICIPANT,,,,1,,,10.726100000008941,,,,,,,,,2024-07-09_22h33.45.575,,,,,,001
﻿,MacIntel,,,21.915900000005962,,,Metalinguistic Conjunctives,,,,,,2024-07-09_22h34.10.239,return,,,,,,,30.001200048003255,001,,metalinguistic_conjunctives_final,,,,2024.1.5,,,,,,,,,,,,,,,,PARTICIPANT,,,,,,,,16.145400000005957,,,,,,,,2024-07-09_22h33.45.575,5.7257000000029805,,,,,001
﻿known_objects/camera.png,MacIntel,27.282299999997022,,,9,,Metalinguistic Conjunctives,21.920499999999997,,right,,left,2024-07-09_22h34.10.239,,,27.782400000005957,image_2,,0,,30.001200048003255,001,,metalinguistic_conjunctives_final,25.114799999997018,mutual_ex,,2024.1.5,0,-0.48246527777777776,0,0,Choose the hux.,,,,,,,audio/audio_prompt/amp_normed/Camera.wav,NOUN-2-600DPI/2041-600.jpg,1,camera,PARTICIPANT,1,27.28259999999404,0,,known_objects/camera.png,-0.05807291666666667,,,audio/audio_text/amp_normed/Camera.wav,,-0.011749131944444444,hux,1,This is a camera.,0,2024-07-09_22h33.45.575,,25.11520000000298,0,-0.03867621527777778,,001
﻿known_objects/baseball.png,MacIntel,40.114799999997025,,,0,,Metalinguistic Conjunctives,27.783200000002978,,right,,left,2024-07-09_22h34.10.239,,,40.61229999999703,image_2,,0,,30.001200048003255,001,,metalinguistic_conjunctives_final,32.81209999999404,and,,2024.1.5,0,0.44817708333333334,1,0,Choose the beag.,,,,,,,audio/audio_prompt/amp_normed/Baseball_and_Beag.wav,NOUN-2-600DPI/2015-600.jpg,1,baseball,PARTICIPANT,1,40.11509999999405,0,,known_objects/baseball.png,-0.1038107638888889,,,audio/audio_text/amp_normed/Baseball_and_Beag.wav,,-0.014118923611111112,beag,1,This is a baseball and a beag.,1,2024-07-09_22h33.45.575,,32.812299999997016,0,0.0489453125,,001
﻿NOUN-2-600DPI/2007-600.jpg,MacIntel,48.044999999999995,,,3,,Metalinguistic Conjunctives,40.612599999994025,,right,,left,2024-07-09_22h34.10.239,,,48.547900000005946,image_2,,0,,30.001200048003255,001,,metalinguistic_conjunctives_final,45.915299999997025,label,,2024.1.5,0,0.5080859375,2,0,Choose the wupt.,,,,,,,audio/audio_prompt/amp_normed/Wupt.wav,NOUN-2-600DPI/2007-600.jpg,1,headphones,PARTICIPANT,1,48.04509999999403,0,,known_objects/headphones.png,0.039778645833333334,,,audio/audio_text/amp_normed/Wupt.wav,,-0.007903645833333334,wupt,1,This is a wupt.,2,2024-07-09_22h33.45.575,,45.91540000000595,0,-0.10297743055555555,,001
﻿known_objects/car.png,MacIntel,54.381700000002986,,,2,,Metalinguistic Conjunctives,48.548299999997006,,left,,right,2024-07-09_22h34.10.239,,,54.87909999999403,image_2,,0,,30.001200048003255,001,,metalinguistic_conjunctives_final,52.91590000000597,not,,2024.1.5,0,0.5174696180555556,3,0,Choose the zav.,,,,,,,audio/audio_prompt/amp_normed/Car_not_Zav.wav,NOUN-2-600DPI/2005-600.jpg,1,car,PARTICIPANT,1,54.381700000002986,0,,known_objects/car.png,0.05908854166666667,,,audio/audio_text/amp_normed/Car_not_Zav.wav,,-0.028563368055555555,zav,1,"This is a car, not a zav.",3,2024-07-09_22h33.45.575,,52.916000000000004,0,0.017799479166666667,,001
﻿known_objects/phone.png,MacIntel,60.04459999999404,,,8,,Metalinguistic Conjunctives,54.87929999999702,,right,,left,2024-07-09_22h34.10.239,,,60.54649999999999,image_2,,0,,30.001200048003255,001,,metalinguistic_conjunctives_final,56.41320000000298,mutual_ex,,2024.1.5,0,-0.48810763888888886,4,0,Choose the bem.,,,,,,,audio/audio_prompt/amp_normed/Phone.wav,NOUN-2-600DPI/2030-600.jpg,1,phone,PARTICIPANT,1,60.04470000000297,0,,known_objects/phone.png,0.047135416666666666,,,audio/audio_text/amp_normed/Phone.wav,,-0.05678819444444445,bem,1,This is a phone.,4,2024-07-09_22h33.45.575,,56.413299999997015,0,0.0017534722222222222,,001
﻿NOUN-2-600DPI/2017-600.jpg,MacIntel,65.21340000000595,,,7,,Metalinguistic Conjunctives,60.54690000000597,,left,,right,2024-07-09_22h34.10.239,,,65.71309999999403,image_2,,0,,30.001200048003255,001,,metalinguistic_conjunctives_final,63.17770000000298,label,,2024.1.5,0,0.4828515625,5,0,Choose the Jang.,,,,,,,audio/audio_prompt/amp_normed/Jang.wav,NOUN-2-600DPI/2017-600.jpg,1,wrench,PARTICIPANT,1,65.21349999999998,0,,known_objects/wrench.png,0.05901475694444445,,,audio/audio_text/amp_normed/Jang.wav,,0.015616319444444445,jang,1,This is a jang.,5,2024-07-09_22h33.45.575,,63.17770000000298,0,0.034053819444444446,,001
﻿known_objects/clock.png,MacIntel,72.04629999999702,,,5,,Metalinguistic Conjunctives,65.71359999999405,,left,,right,2024-07-09_22h34.10.239,,,72.54870000000298,image_3,,0,,30.001200048003255,001,,metalinguistic_conjunctives_final,69.84620000000297,or,,2024.1.5,0,0.5490364583333334,6,0,Choose the dite.,,,,,,,audio/audio_prompt/amp_normed/Clock_or_Dite.wav,NOUN-2-600DPI/2013-600.jpg,1,clock,PARTICIPANT,1,72.04640000000595,0,,known_objects/clock.png,-0.07239583333333334,,,audio/audio_text/amp_normed/Clock_or_Dite.wav,,0.016987847222222224,dite,1,This is a clock or a dite.,6,2024-07-09_22h33.45.575,,69.84620000000297,0,0.06331597222222222,,001
﻿known_objects/cup.png,MacIntel,76.87790000000595,,,1,,Metalinguistic Conjunctives,72.549299999997,,left,,right,2024-07-09_22h34.10.239,,,77.38129999999703,image_3,,0,,30.001200048003255,001,,metalinguistic_conjunctives_final,75.247799999997,or,,2024.1.5,0,0.4420703125,7,0,Choose the hane.,,,,,,,audio/audio_prompt/amp_normed/Cup_or_Hane.wav,NOUN-2-600DPI/2003-600.jpg,1,cup,PARTICIPANT,1,76.87799999999999,0,,known_objects/cup.png,0.11836371527777778,,,audio/audio_text/amp_normed/Cup_or_Hane.wav,,0.055789930555555554,hane,1,This is a cup or a hane.,7,2024-07-09_22h33.45.575,,75.24790000000596,0,0.005234375,,001
﻿known_objects/lamp.png,MacIntel,85.17729999999702,,,4,,Metalinguistic Conjunctives,77.38149999999999,,right,,left,2024-07-09_22h34.10.239,,,85.67999999999998,image_3,,0,,30.001200048003255,001,,metalinguistic_conjunctives_final,83.04670000000297,and,,2024.1.5,0,0.4891189236111111,8,0,Choose the fimp.,,,,,,,audio/audio_prompt/amp_normed/Lamp_and_Fimp.wav,NOUN-2-600DPI/2010-600.jpg,1,lamp,PARTICIPANT,1,85.17740000000595,0,,known_objects/lamp.png,-0.0013845486111111111,,,audio/audio_text/amp_normed/Lamp_and_Fimp.wav,,0.043268229166666665,fimp,1,This is a lamp and a fimp.,8,2024-07-09_22h33.45.575,,83.046799999997,0,0.0403125,,001
﻿known_objects/backpack.png,MacIntel,89.244,,,6,,Metalinguistic Conjunctives,85.68090000000595,,right,,left,2024-07-09_22h34.10.239,,,89.74540000000596,image_2,,0,,30.001200048003255,001,,metalinguistic_conjunctives_final,87.98090000000596,not,,2024.1.5,0,0.4934201388888889,9,0,Choose the pank.,,,,,,,audio/audio_prompt/amp_normed/Backpack_not_Pank.wav,NOUN-2-600DPI/2014-600.jpg,1,backpack,PARTICIPANT,1,89.24409999999403,0,,known_objects/backpack.png,0.028190104166666667,,,audio/audio_text/amp_normed/Backpack_not_Pank.wav,,-0.02341579861111111,pank,1,"This is a backpack, not a pank.",9,2024-07-09_22h33.45.575,,87.981,0,0.06602430555555555,,001
﻿,MacIntel,,,,,,Metalinguistic Conjunctives,,,,,,2024-07-09_22h34.10.239,,,,,,,,30.001200048003255,001,,metalinguistic_conjunctives_final,,,,2024.1.5,,,,,,91.21449999999999,return,,1.3900000000000148,,,,,,,PARTICIPANT,,,,,,,,,,89.74599999999998,,,,,,2024-07-09_22h33.45.575,,,,,,001
﻿,MacIntel,,,,,8.547900000095368,Metalinguistic Conjunctives,,return,,,,2024-07-09_22h33.52.867,,668d655ff5755515179cd089,,,0.00010000002383492301,,,30.03003003004053,001,,metalinguistic_conjunctives_final,,,,2024.1.5,,,,,,,,,,,,,,,,PARTICIPANT,,,,,,,,,,,,,,,,2024-07-09_22h32.44.423,,,,,8.565100000023833,001
﻿,MacIntel,,-0.09368057179607109,,,,Metalinguistic Conjunctives,,,,8.565300000071517,,2024-07-09_22h33.52.867,,668d655ff5755515179cd089,,,,,61.00260000002385,30.03003003004053,001,0,metalinguistic_conjunctives_final,,,,2024.1.5,,,,,,,,0,,-0.051088195743685685,,,,,,PARTICIPANT,,,,1,,,51.90419999992848,,,,,,,,,2024-07-09_22h32.44.423,,,,,,001
﻿,MacIntel,,,67.42990000009536,,,Metalinguistic Conjunctives,,,,,,2024-07-09_22h33.52.867,return,668d655ff5755515179cd089,,,,,,30.03003003004053,001,,metalinguistic_conjunctives_final,,,,2024.1.5,,,,,,,,,,,,,,,,PARTICIPANT,,,,,,,,61.00260000002385,,,,,,,,2024-07-09_22h32.44.423,6.3904999999999745,,,,,001
﻿NOUN-2-600DPI/2007-600.jpg,MacIntel,72.06199999999998,,,3,,Metalinguistic Conjunctives,67.44320000004768,,right,,left,2024-07-09_22h33.52.867,,668d655ff5755515179cd089,72.56160000002384,image_2,,0,,30.03003003004053,001,,metalinguistic_conjunctives_final,70.26130000007151,label,,2024.1.5,0,-0.5005152303554724,0,0,Choose the wupt.,,,,,,,audio/audio_prompt/amp_normed/Wupt.wav,NOUN-2-600DPI/2007-600.jpg,1,headphones,PARTICIPANT,1,72.06210000002383,0,,known_objects/headphones.png,-0.10791335360149673,,,audio/audio_text/amp_normed/Wupt.wav,,0.017828431945743687,wupt,1,This is a wupt.,0,2024-07-09_22h32.44.423,,70.26160000002383,0,-0.044130758886810104,,001
﻿known_objects/car.png,MacIntel,76.29480000007152,,,2,,Metalinguistic Conjunctives,72.56260000002385,,right,,left,2024-07-09_22h33.52.867,,668d655ff5755515179cd089,76.79190000009535,image_2,,0,,30.03003003004053,001,,metalinguistic_conjunctives_final,75.02880000007153,not,,2024.1.5,0,0.4936235675865295,1,0,Choose the zav.,,,,,,,audio/audio_prompt/amp_normed/Car_not_Zav.wav,NOUN-2-600DPI/2005-600.jpg,1,car,PARTICIPANT,1,76.29480000007152,0,,known_objects/car.png,-0.37325333255378856,,,audio/audio_text/amp_normed/Car_not_Zav.wav,,-0.03371652829747428,zav,1,"This is a car, not a zav.",1,2024-07-09_22h32.44.423,,75.02890000009538,0,-0.13663470533208605,,001
﻿known_objects/lamp.png,MacIntel,84.02780000007152,,,4,,Metalinguistic Conjunctives,76.79220000004767,,right,,left,2024-07-09_22h33.52.867,,668d655ff5755515179cd089,84.52910000002385,image_3,,0,,30.03003003004053,001,,metalinguistic_conjunctives_final,81.86080000007152,and,,2024.1.5,0,-0.48823009237605236,2,0,Choose the fimp.,,,,,,,audio/audio_prompt/amp_normed/Lamp_and_Fimp.wav,NOUN-2-600DPI/2010-600.jpg,1,lamp,PARTICIPANT,1,84.02790000009537,0,,known_objects/lamp.png,0.30857547942001873,,,audio/audio_text/amp_normed/Lamp_and_Fimp.wav,,0.03190043264733396,fimp,1,This is a lamp and a fimp.,2,2024-07-09_22h32.44.423,,81.86090000009537,0,-0.0438165049111319,,001
﻿known_objects/phone.png,MacIntel,87.09420000004769,,,8,,Metalinguistic Conjunctives,84.52920000004767,,right,,left,2024-07-09_22h33.52.867,,668d655ff5755515179cd089,87.59440000009536,image_2,,0,,30.03003003004053,001,,metalinguistic_conjunctives_final,85.95840000009537,mutual_ex,,2024.1.5,0,0.4858110675865295,3,0,Choose the bem.,,,,,,,audio/audio_prompt/amp_normed/Phone.wav,NOUN-2-600DPI/2030-600.jpg,1,phone,PARTICIPANT,1,87.09430000007151,0,,known_objects/phone.png,0.03706004443405051,,,audio/audio_text/amp_normed/Phone.wav,,-0.028019761459307763,bem,1,This is a phone.,3,2024-07-09_22h32.44.423,,85.95849999999999,0,-0.24925456033676333,,001
﻿known_objects/camera.png,MacIntel,90.22530000007151,,,9,,Metalinguistic Conjunctives,87.59460000002383,,right,,left,2024-07-09_22h33.52.867,,668d655ff5755515179cd089,90.72730000007152,image_2,,0,,30.03003003004053,001,,metalinguistic_conjunctives_final,88.75840000009535,mutual_ex,,2024.1.5,0,0.48945056711880264,4,0,Choose the hux.,,,,,,,audio/audio_prompt/amp_normed/Camera.wav,NOUN-2-600DPI/2041-600.jpg,1,camera,PARTICIPANT,1,90.22540000009536,0,,known_objects/camera.png,0.011130437324602432,,,audio/audio_text/amp_normed/Camera.wav,,-0.0056492633302151546,hux,1,This is a camera.,4,2024-07-09_22h32.44.423,,88.7585,0,-0.12650549579045836,,001
﻿known_objects/baseball.png,MacIntel,93.1585,,,0,,Metalinguistic Conjunctives,90.72780000007151,,left,,right,2024-07-09_22h33.52.867,,668d655ff5755515179cd089,93.65970000004768,image_3,,0,,30.03003003004053,001,,metalinguistic_conjunctives_final,91.95849999999999,and,,2024.1.5,0,-0.4403209775491113,5,0,Choose the beag.,,,,,,,audio/audio_prompt/amp_normed/Baseball_and_Beag.wav,NOUN-2-600DPI/2015-600.jpg,1,baseball,PARTICIPANT,1,93.15860000002382,0,,known_objects/baseball.png,-0.17949748596819456,,,audio/audio_text/amp_normed/Baseball_and_Beag.wav,,-0.03645346117867165,beag,1,This is a baseball and a beag.,5,2024-07-09_22h32.44.423,,91.95860000002384,0,-0.14714759705332087,,001
﻿known_objects/cup.png,MacIntel,96.72630000007152,,,1,,Metalinguistic Conjunctives,93.66,,left,,right,2024-07-09_22h33.52.867,,668d655ff5755515179cd089,97.22740000009537,image_3,,0,,30.03003003004053,001,,metalinguistic_conjunctives_final,95.76070000004768,or,,2024.1.5,0,0.4896917387745557,6,0,Choose the hane.,,,,,,,audio/audio_prompt/amp_normed/Cup_or_Hane.wav,NOUN-2-600DPI/2003-600.jpg,1,cup,PARTICIPANT,1,96.72640000009537,0,,known_objects/cup.png,0.013706589101964452,,,audio/audio_text/amp_normed/Cup_or_Hane.wav,,0.03600035079513564,hane,1,This is a cup or a hane.,6,2024-07-09_22h32.44.423,,95.76070000004768,0,-0.18790926099158092,,001
﻿known_objects/clock.png,MacIntel,101.89410000002383,,,5,,Metalinguistic Conjunctives,97.22760000002384,,left,,right,2024-07-09_22h33.52.867,,668d655ff5755515179cd089,102.39099999999999,image_3,,0,,30.03003003004053,001,,metalinguistic_conjunctives_final,98.99310000002384,or,,2024.1.5,0,0.45047211178671653,7,0,Choose the dite.,,,,,,,audio/audio_prompt/amp_normed/Clock_or_Dite.wav,NOUN-2-600DPI/2013-600.jpg,1,clock,PARTICIPANT,1,101.89410000002383,0,,known_objects/clock.png,0.15968121492048643,,,audio/audio_text/amp_normed/Clock_or_Dite.wav,,0.07647699368568756,dite,1,This is a clock or a dite.,7,2024-07-09_22h32.44.423,,98.99320000004766,0,0.0474779291393826,,001
﻿known_objects/backpack.png,MacIntel,107.35970000004767,,,6,,Metalinguistic Conjunctives,102.40090000009536,,left,,right,2024-07-09_22h33.52.867,,668d655ff5755515179cd089,107.83520000004768,image_2,,0,,30.03003003004053,001,,metalinguistic_conjunctives_final,105.55840000009536,not,,2024.1.5,0,-0.4927575420954163,8,0,Choose the pank.,,,,,,,audio/audio_prompt/amp_normed/Backpack_not_Pank.wav,NOUN-2-600DPI/2014-600.jpg,1,backpack,PARTICIPANT,1,107.35970000004767,0,,known_objects/backpack.png,0.45047211178671653,,,audio/audio_text/amp_normed/Backpack_not_Pank.wav,,-0.007626140084190832,pank,1,"This is a backpack, not a pank.",8,2024-07-09_22h32.44.423,,105.55849999999998,0,0.07647699368568756,,001
﻿NOUN-2-600DPI/2017-600.jpg,MacIntel,110.59320000004769,,,7,,Metalinguistic Conjunctives,107.83560000002385,,right,,left,2024-07-09_22h33.52.867,,668d655ff5755515179cd089,111.09140000009538,image_2,,0,,30.03003003004053,001,,metalinguistic_conjunctives_final,109.29370000004766,label,,2024.1.5,0,-0.4927575420954163,9,0,Choose the Jang.,,,,,,,audio/audio_prompt/amp_normed/Jang.wav,NOUN-2-600DPI/2017-600.jpg,1,wrench,PARTICIPANT,1,110.59320000004769,0,,known_objects/wrench.png,-0.4927575420954163,,,audio/audio_text/amp_normed/Jang.wav,,-0.007626140084190832,jang,1,This is a jang.,9,2024-07-09_22h32.44.423,,109.29390000009536,0,-0.007626140084190832,,001
﻿,MacIntel,,,,,,Metalinguistic Conjunctives,,,,,,2024-07-09_22h33.52.867,,668d655ff5755515179cd089,,,,,,30.03003003004053,001,,metalinguistic_conjunctives_final,,,,2024.1.5,,,,,,112.9615,return,,1.8297000000476658,,,,,,,PARTICIPANT,,,,,,,,,,111.09240000009535,,,,,,2024-07-09_22h32.44.423,,,,,,001
﻿,Win32,,,,,2.099,Metalinguistic Conjunctives,,return,,,,2024-07-09_22h37.11.740,,,,,0.00030000000074359434,,,144.9275362318917,001,,metalinguistic_conjunctives_final,,,,2024.1.5,,,,,,,,,,,,,,,,PARTICIPANT,,,,,,,,,,,,,,,,2024-07-09_22h37.04.425,,,,,2.10610000000149,001
﻿,Win32,,-0.08333333333333333,,,,Metalinguistic Conjunctives,,,,2.10610000000149,,2024-07-09_22h37.11.740,,,,,,,4.62339999999851,144.9275362318917,001,0,metalinguistic_conjunctives_final,,,,2024.1.5,,,,,,,,0,,-0.12685185185185185,,,,,,PARTICIPANT,,,,1,,,2.0035000000000007,,,,,,,,,2024-07-09_22h37.04.425,,,,,,001
﻿,Win32,,,8.140800000000745,,,Metalinguistic Conjunctives,,,,,,2024-07-09_22h37.11.740,return,,,,,,,144.9275362318917,001,,metalinguistic_conjunctives_final,,,,2024.1.5,,,,,,,,,,,,,,,,PARTICIPANT,,,,,,,,4.6235,,,,,,,,2024-07-09_22h37.04.425,3.509000000000002,,,,,001
﻿known_objects/baseball.png,Win32,19.88110000000149,,,0,,Metalinguistic Conjunctives,8.143800000000745,,right,,left,2024-07-09_22h37.11.740,,,20.377699999999255,image_2,,0,,144.9275362318917,001,,metalinguistic_conjunctives_final,13.460600000001488,and,,2024.1.5,0,-0.5009259259259259,0,0,Choose the beag.,,,,,,,audio/audio_prompt/amp_normed/Baseball_and_Beag.wav,NOUN-2-600DPI/2015-600.jpg,1,baseball,PARTICIPANT,1,19.88110000000149,0,,known_objects/baseball.png,-0.13796296296296295,,,audio/audio_text/amp_normed/Baseball_and_Beag.wav,,0,beag,1,This is a baseball and a beag.,0,2024-07-09_22h37.04.425,,13.460699999999253,0,-0.1111111111111111,,001
﻿NOUN-2-600DPI/2017-600.jpg,Win32,24.856999999999996,,,7,,Metalinguistic Conjunctives,20.377899999998508,,right,,left,2024-07-09_22h37.11.740,,,25.356899999998507,image_2,,0,,144.9275362318917,001,,metalinguistic_conjunctives_final,22.94730000000074,label,,2024.1.5,0,0.48518518518518516,1,0,Choose the Jang.,,,,,,,audio/audio_prompt/amp_normed/Jang.wav,NOUN-2-600DPI/2017-600.jpg,1,wrench,PARTICIPANT,1,24.856999999999996,0,,known_objects/wrench.png,-0.016666666666666666,,,audio/audio_text/amp_normed/Jang.wav,,0.008333333333333333,jang,1,This is a jang.,1,2024-07-09_22h37.04.425,,22.94730000000074,0,-0.09074074074074075,,001
﻿known_objects/cup.png,Win32,30.46139999999851,,,1,,Metalinguistic Conjunctives,25.357199999999256,,right,,left,2024-07-09_22h37.11.740,,,30.961300000000744,image_3,,0,,144.9275362318917,001,,metalinguistic_conjunctives_final,29.04110000000149,or,,2024.1.5,0,-0.537962962962963,2,0,Choose the hane.,,,,,,,audio/audio_prompt/amp_normed/Cup_or_Hane.wav,NOUN-2-600DPI/2003-600.jpg,1,cup,PARTICIPANT,1,30.461499999999997,0,,known_objects/cup.png,-0.08425925925925926,,,audio/audio_text/amp_normed/Cup_or_Hane.wav,,0.007407407407407408,hane,1,This is a cup or a hane.,2,2024-07-09_22h37.04.425,,29.041199999999254,0,-0.12222222222222222,,001
﻿known_objects/clock.png,Win32,35.31889999999851,,,5,,Metalinguistic Conjunctives,30.961499999999997,,right,,left,2024-07-09_22h37.11.740,,,35.81589999999851,image_3,,0,,144.9275362318917,001,,metalinguistic_conjunctives_final,33.69769999999926,or,,2024.1.5,0,-0.48703703703703705,3,0,Choose the dite.,,,,,,,audio/audio_prompt/amp_normed/Clock_or_Dite.wav,NOUN-2-600DPI/2013-600.jpg,1,clock,PARTICIPANT,1,35.31889999999851,0,,known_objects/clock.png,-0.1175925925925926,,,audio/audio_text/amp_normed/Clock_or_Dite.wav,,0.032407407407407406,dite,1,This is a clock or a dite.,3,2024-07-09_22h37.04.425,,33.69769999999926,0,-0.16018518518518518,,001
﻿known_objects/lamp.png,Win32,42.79539999999851,,,4,,Metalinguistic Conjunctives,35.816,,right,,left,2024-07-09_22h37.11.740,,,43.297899999998506,image_3,,0,,144.9275362318917,001,,metalinguistic_conjunctives_final,40.26039999999851,and,,2024.1.5,0,-0.4842592592592593,4,0,Choose the fimp.,,,,,,,audio/audio_prompt/amp_normed/Lamp_and_Fimp.wav,NOUN-2-600DPI/2010-600.jpg,1,lamp,PARTICIPANT,1,42.79539999999851,0,,known_objects/lamp.png,-0.13796296296296295,,,audio/audio_text/amp_normed/Lamp_and_Fimp.wav,,-0.017592592592592594,fimp,1,This is a lamp and a fimp.,4,2024-07-09_22h37.04.425,,40.26039999999851,0,-0.2175925925925926,,001
﻿known_objects/phone.png,Win32,49.927499999999995,,,8,,Metalinguistic Conjunctives,43.29810000000148,,right,,left,2024-07-09_22h37.11.740,,,50.42760000000149,image_2,,0,,144.9275362318917,001,,metalinguistic_conjunctives_final,46.50380000000074,mutual_ex,,2024.1.5,0,0.4925925925925926,5,0,Choose the bem.,,,,,,,audio/audio_prompt/amp_normed/Phone.wav,NOUN-2-600DPI/2030-600.jpg,1,phone,PARTICIPANT,1,49.92760000000149,0,,known_objects/phone.png,-0.05092592592592592,,,audio/audio_text/amp_normed/Phone.wav,,-0.030555555555555555,bem,1,This is a phone.,5,2024-07-09_22h37.04.425,,46.50380000000074,0,-0.10555555555555556,,001
﻿known_objects/camera.png,Win32,57.02510000000149,,,9,,Metalinguistic Conjunctives,50.427800000000744,,right,,left,2024-07-09_22h37.11.740,,,57.525300000000755,image_2,,0,,144.9275362318917,001,,metalinguistic_conjunctives_final,52.46569999999926,mutual_ex,,2024.1.5,0,0.5138888888888888,6,0,Choose the hux.,,,,,,,audio/audio_prompt/amp_normed/Camera.wav,NOUN-2-600DPI/2041-600.jpg,1,camera,PARTICIPANT,1,57.02519999999926,0,,known_objects/camera.png,0.07592592592592592,,,audio/audio_text/amp_normed/Camera.wav,,-0.011111111111111112,hux,1,This is a camera.,6,2024-07-09_22h37.04.425,,52.46569999999926,0,-0.24259259259259258,,001
﻿NOUN-2-600DPI/2007-600.jpg,Win32,61.5115,,,3,,Metalinguistic Conjunctives,57.53,,left,,right,2024-07-09_22h37.11.740,,,62.00769999999926,image_2,,0,,144.9275362318917,001,,metalinguistic_conjunctives_final,60.1365,label,,2024.1.5,0,0.4824074074074074,7,0,Choose the wupt.,,,,,,,audio/audio_prompt/amp_normed/Wupt.wav,NOUN-2-600DPI/2007-600.jpg,1,headphones,PARTICIPANT,1,61.5115,0,,known_objects/headphones.png,0.04351851851851852,,,audio/audio_text/amp_normed/Wupt.wav,,-0.003703703703703704,wupt,1,This is a wupt.,7,2024-07-09_22h37.04.425,,60.1365,0,-0.22037037037037038,,001
﻿known_objects/backpack.png,Win32,66.27560000000149,,,6,,Metalinguistic Conjunctives,62.00780000000074,,right,,left,2024-07-09_22h37.11.740,,,66.77139999999851,image_2,,0,,144.9275362318917,001,,metalinguistic_conjunctives_final,64.85480000000075,not,,2024.1.5,0,-0.5157407407407407,8,0,Choose the pank.,,,,,,,audio/audio_prompt/amp_normed/Backpack_not_Pank.wav,NOUN-2-600DPI/2014-600.jpg,1,backpack,PARTICIPANT,1,66.27580000000074,0,,known_objects/backpack.png,-0.010185185185185186,,,audio/audio_text/amp_normed/Backpack_not_Pank.wav,,0.008333333333333333,pank,1,"This is a backpack, not a pank.",8,2024-07-09_22h37.04.425,,64.85480000000075,0,-0.27037037037037037,,001
﻿known_objects/car.png,Win32,72.8245,,,2,,Metalinguistic Conjunctives,66.77169999999926,,right,,left,2024-07-09_22h37.11.740,,,73.32480000000075,image_2,,0,,144.9275362318917,001,,metalinguistic_conjunctives_final,70.88539999999851,not,,2024.1.5,0,0.4935185185185185,9,0,Choose the zav.,,,,,,,audio/audio_prompt/amp_normed/Car_not_Zav.wav,NOUN-2-600DPI/2005-600.jpg,1,car,PARTICIPANT,1,72.82469999999925,0,,known_objects/car.png,-0.062037037037037036,,,audio/audio_text/amp_normed/Car_not_Zav.wav,,-0.012962962962962963,zav,1,"This is a car, not a zav.",9,2024-07-09_22h37.04.425,,70.88550000000001,0,-0.2777777777777778,,001
﻿,Win32,,,,,,Metalinguistic Conjunctives,,,,,,2024-07-09_22h37.11.740,,,,,,,,144.9275362318917,001,,metalinguistic_conjunctives_final,,,,2024.1.5,,,,,,74.29,return,,0.9525999999977728,,,,,,,PARTICIPANT,,,,,,,,,,73.325,,,,,,2024-07-09_22h37.04.425,,,,,,001
﻿,Win32,,,,,4.925200000017881,Metalinguistic Conjunctives,,return,,,,2024-07-10_14h42.10.479,,,,,0.007199999988081629,,,58.47953216374766,001,,metalinguistic_conjunctives_final,,,,2024.1.5,,,,,,,,,,,,,,,,PARTICIPANT,,,,,,,,,,,,,,,,2024-07-10_14h41.50.909,,,,,4.969000000000001,001
﻿,Win32,,-0.18177344411464746,,,,Metalinguistic Conjunctives,,,,4.969799999982115,,2024-07-10_14h42.10.479,,,,,,,10.099599999994041,58.47953216374766,001,0,metalinguistic_conjunctives_final,,,,2024.1.5,,,,,,,,0,,-0.16847289137065116,,,,,,PARTICIPANT,,,,1,,,4.621800000011923,,,,,,,,,2024-07-10_14h41.50.909,,,,,,001
﻿,Win32,,,17.424500000000002,,,Metalinguistic Conjunctives,,,,,,2024-07-10_14h42.10.479,return,,,,,,,58.47953216374766,001,,metalinguistic_conjunctives_final,,,,2024.1.5,,,,,,,,,,,,,,,,PARTICIPANT,,,,,,,,10.100599999994039,,,,,,,,2024-07-10_14h41.50.909,7.286000000000001,,,,,001
﻿known_objects/camera.png,Win32,24.660400000005957,,,9,,Metalinguistic Conjunctives,17.44390000000596,,left,,right,2024-07-10_14h42.10.479,,,25.14219999998808,image_2,,0,,58.47953216374766,001,,metalinguistic_conjunctives_final,20.83490000000596,mutual_ex,,2024.1.5,0,-0.49655170158799644,0,0,Choose the hux.,,,,,,,audio/audio_prompt/amp_normed/Camera.wav,NOUN-2-600DPI/2041-600.jpg,1,camera,PARTICIPANT,1,24.661900000005957,0,,known_objects/camera.png,-0.16847289137065116,,,audio/audio_text/amp_normed/Camera.wav,,-0.0014778475456049876,hux,1,This is a camera.,0,2024-07-10_14h41.50.909,,20.835599999994038,0,-0.18177344411464746,,001
﻿known_objects/phone.png,Win32,31.011400000005956,,,8,,Metalinguistic Conjunctives,25.144999999999996,,left,,right,2024-07-10_14h42.10.479,,,31.509199999988077,image_2,,0,,58.47953216374766,001,,metalinguistic_conjunctives_final,27.44079999998212,mutual_ex,,2024.1.5,0,-0.49655170158799644,1,0,Choose the bem.,,,,,,,audio/audio_prompt/amp_normed/Phone.wav,NOUN-2-600DPI/2030-600.jpg,1,phone,PARTICIPANT,1,31.01159999999404,0,,known_objects/phone.png,-0.49655170158799644,,,audio/audio_text/amp_normed/Phone.wav,,-0.0014778475456049876,bem,1,This is a phone.,1,2024-07-10_14h41.50.909,,27.441299999982114,0,-0.0014778475456049876,,001
﻿known_objects/clock.png,Win32,38.76019999998808,,,5,,Metalinguistic Conjunctives,31.510299999982117,,right,,left,2024-07-10_14h42.10.479,,,39.259599999994045,image_3,,0,,58.47953216374766,001,,metalinguistic_conjunctives_final,34.98809999999404,or,,2024.1.5,0,0.5152709660271706,2,0,Choose the dite.,,,,,,,audio/audio_prompt/amp_normed/Clock_or_Dite.wav,NOUN-2-600DPI/2013-600.jpg,1,clock,PARTICIPANT,1,38.760599999994035,0,,known_objects/clock.png,-0.31527093596059114,,,audio/audio_text/amp_normed/Clock_or_Dite.wav,,0.03694581280788178,dite,1,This is a clock or a dite.,2,2024-07-10_14h41.50.909,,34.989299999982116,0,-0.04285716540707743,,001
﻿NOUN-2-600DPI/2017-600.jpg,Win32,44.12759999999404,,,7,,Metalinguistic Conjunctives,39.29040000000595,,right,,left,2024-07-10_14h42.10.479,,,44.624500000000005,image_2,,0,,58.47953216374766,001,,metalinguistic_conjunctives_final,41.73529999998211,label,,2024.1.5,0,0.5428572029903017,3,0,Choose the Jang.,,,,,,,audio/audio_prompt/amp_normed/Jang.wav,NOUN-2-600DPI/2017-600.jpg,1,wrench,PARTICIPANT,1,44.12799999999999,0,,known_objects/wrench.png,0.21477835518973215,,,audio/audio_text/amp_normed/Jang.wav,,0.0014778099623806958,jang,1,This is a jang.,3,2024-07-10_14h41.50.909,,41.735599999994044,0,0.018226585951931957,,001
﻿known_objects/baseball.png,Win32,50.6615,,,0,,Metalinguistic Conjunctives,44.62490000000596,,left,,right,2024-07-10_14h42.10.479,,,51.159900000005955,image_3,,0,,58.47953216374766,001,,metalinguistic_conjunctives_final,47.72819999998807,and,,2024.1.5,0,-0.45320197044334976,4,0,Choose the beag.,,,,,,,audio/audio_prompt/amp_normed/Baseball_and_Beag.wav,NOUN-2-600DPI/2015-600.jpg,1,baseball,PARTICIPANT,1,50.66169999998808,0,,known_objects/baseball.png,0.21477835518973215,,,audio/audio_text/amp_normed/Baseball_and_Beag.wav,,-0.007389162561576354,beag,1,This is a baseball and a beag.,4,2024-07-10_14h41.50.909,,47.72829999998212,0,-0.04778327378146167,,001
﻿NOUN-2-600DPI/2007-600.jpg,Win32,55.92659999999403,,,3,,Metalinguistic Conjunctives,51.190999999999995,,right,,left,2024-07-10_14h42.10.479,,,56.42240000000596,image_2,,0,,58.47953216374766,001,,metalinguistic_conjunctives_final,53.70890000000596,label,,2024.1.5,0,-0.44630541120256695,5,0,Choose the wupt.,,,,,,,audio/audio_prompt/amp_normed/Wupt.wav,NOUN-2-600DPI/2007-600.jpg,1,headphones,PARTICIPANT,1,55.926799999982116,0,,known_objects/headphones.png,0.1014778625788947,,,audio/audio_text/amp_normed/Wupt.wav,,0.009359613427974908,wupt,1,This is a wupt.,5,2024-07-10_14h41.50.909,,53.709099999994045,0,-0.01822662353515625,,001
﻿known_objects/lamp.png,Win32,61.58879999998212,,,4,,Metalinguistic Conjunctives,56.424900000005955,,right,,left,2024-07-10_14h42.10.479,,,62.07969999998807,image_3,,0,,58.47953216374766,001,,metalinguistic_conjunctives_final,59.213,and,,2024.1.5,0,-0.510344820069562,6,0,Choose the fimp.,,,,,,,audio/audio_prompt/amp_normed/Lamp_and_Fimp.wav,NOUN-2-600DPI/2010-600.jpg,1,lamp,PARTICIPANT,1,61.589199999988075,0,,known_objects/lamp.png,0.12413791600119305,,,audio/audio_text/amp_normed/Lamp_and_Fimp.wav,,0.025123145192714746,fimp,1,This is a lamp and a fimp.,6,2024-07-10_14h41.50.909,,59.2135,0,0.06847291392058574,,001
﻿known_objects/cup.png,Win32,66.31899999999999,,,1,,Metalinguistic Conjunctives,62.08119999998808,,left,,right,2024-07-10_14h42.10.479,,,66.81190000000595,image_3,,0,,58.47953216374766,001,,metalinguistic_conjunctives_final,64.42069999998807,or,,2024.1.5,0,-0.4847290715560537,7,0,Choose the hane.,,,,,,,audio/audio_prompt/amp_normed/Cup_or_Hane.wav,NOUN-2-600DPI/2003-600.jpg,1,cup,PARTICIPANT,1,66.31919999998809,0,,known_objects/cup.png,-0.19605912833378233,,,audio/audio_text/amp_normed/Cup_or_Hane.wav,,0.031034460208686113,hane,1,This is a cup or a hane.,7,2024-07-10_14h41.50.909,,64.42109999999403,0,-0.017241379310344827,,001
﻿known_objects/backpack.png,Win32,72.73949999999999,,,6,,Metalinguistic Conjunctives,66.81259999999403,,left,,right,2024-07-10_14h42.10.479,,,73.24350000000001,image_2,,0,,58.47953216374766,001,,metalinguistic_conjunctives_final,69.99329999998213,not,,2024.1.5,0,-0.43152708607941426,8,0,Choose the pank.,,,,,,,audio/audio_prompt/amp_normed/Backpack_not_Pank.wav,NOUN-2-600DPI/2014-600.jpg,1,backpack,PARTICIPANT,1,72.73959999999403,0,,known_objects/backpack.png,-0.019704433497536946,,,audio/audio_text/amp_normed/Backpack_not_Pank.wav,,0.025123145192714746,pank,1,"This is a backpack, not a pank.",8,2024-07-10_14h41.50.909,,69.99350000000001,0,-0.25862068965517243,,001
﻿known_objects/car.png,Win32,78.24409999999403,,,2,,Metalinguistic Conjunctives,73.27319999998807,,left,,right,2024-07-10_14h42.10.479,,,78.74449999999999,image_2,,0,,58.47953216374766,001,,metalinguistic_conjunctives_final,76.02579999998213,not,,2024.1.5,0,-0.414778310089863,9,0,Choose the zav.,,,,,,,audio/audio_prompt/amp_normed/Car_not_Zav.wav,NOUN-2-600DPI/2005-600.jpg,1,car,PARTICIPANT,1,78.24419999998807,0,,known_objects/car.png,0.2857142857142857,,,audio/audio_text/amp_normed/Car_not_Zav.wav,,-0.020197036818330513,zav,1,"This is a car, not a zav.",9,2024-07-10_14h41.50.909,,76.02619999998808,0,0.0960591133004926,,001
﻿,Win32,,,,,,Metalinguistic Conjunctives,,,,,,2024-07-10_14h42.10.479,,,,,,,,58.47953216374766,001,,metalinguistic_conjunctives_final,,,,2024.1.5,,,,,,80.36869999998808,return,,1.5649999999999977,,,,,,,PARTICIPANT,,,,,,,,,,78.74619999998808,,,,,,2024-07-10_14h41.50.909,,,,,,001
﻿,Win32,,,,,4.840800000011921,Metalinguistic Conjunctives,,return,,,,2024-07-10_02h03.36.590,,,,,0.0007000000178827293,,,60.24096385541377,001,,metalinguistic_conjunctives_final,,,,2024.1.5,,,,,,,,,,,,,,,,PARTICIPANT,,,,,,,,,,,,,,,,2024-07-10_02h03.22.353,,,,,4.878800000011921,001
﻿,Win32,,-0.1833333615903501,,,,Metalinguistic Conjunctives,,,,4.879100000023843,,2024-07-10_02h03.36.590,,,,,,,9.159700000017882,60.24096385541377,001,0,metalinguistic_conjunctives_final,,,,2024.1.5,,,,,,,,0,,-0.12962962962962962,,,,,,PARTICIPANT,,,,1,,,3.7379999999999995,,,,,,,,,2024-07-10_02h03.22.353,,,,,,001
﻿,Win32,,,15.42310000002384,,,Metalinguistic Conjunctives,,,,,,2024-07-10_02h03.36.590,return,,,,,,,60.24096385541377,001,,metalinguistic_conjunctives_final,,,,2024.1.5,,,,,,,,,,,,,,,,PARTICIPANT,,,,,,,,9.159900000005962,,,,,,,,2024-07-10_02h03.22.353,6.240800000011923,,,,,001
﻿known_objects/backpack.png,Win32,28.476200000017876,,,6,,Metalinguistic Conjunctives,15.431100000023843,,right,,left,2024-07-10_02h03.36.590,,,28.970900000005955,image_2,,0,,60.24096385541377,001,,metalinguistic_conjunctives_final,23.519499999999994,not,,2024.1.5,0,-0.46296296296296297,0,0,Choose the pank.,,,,,,,audio/audio_prompt/amp_normed/Backpack_not_Pank.wav,NOUN-2-600DPI/2014-600.jpg,1,backpack,PARTICIPANT,1,28.476300000011918,0,,known_objects/backpack.png,-0.12962962962962962,,,audio/audio_text/amp_normed/Backpack_not_Pank.wav,,0.007407400343153212,pank,1,"This is a backpack, not a pank.",0,2024-07-10_02h03.22.353,,23.519900000005954,0,-0.1833333615903501,,001
﻿known_objects/phone.png,Win32,34.73040000000596,,,8,,Metalinguistic Conjunctives,28.9715,,right,,left,2024-07-10_02h03.36.590,,,35.22980000001192,image_2,,0,,60.24096385541377,001,,metalinguistic_conjunctives_final,32.33140000000596,mutual_ex,,2024.1.5,0,0.5148148713288484,1,0,Choose the bem.,,,,,,,audio/audio_prompt/amp_normed/Phone.wav,NOUN-2-600DPI/2030-600.jpg,1,phone,PARTICIPANT,1,34.73040000000596,0,,known_objects/phone.png,-0.46296296296296297,,,audio/audio_text/amp_normed/Phone.wav,,-0.03518517812093099,bem,1,This is a phone.,1,2024-07-10_02h03.22.353,,32.33160000002384,0,0.007407400343153212,,001
﻿known_objects/baseball.png,Win32,50.66520000001788,,,0,,Metalinguistic Conjunctives,35.23020000001788,,right,,left,2024-07-10_02h03.36.590,,,51.15570000001788,image_2,,0,,60.24096385541377,001,,metalinguistic_conjunctives_final,43.61630000001192,and,,2024.1.5,0,0.4083333898473669,2,0,Choose the beag.,,,,,,,audio/audio_prompt/amp_normed/Baseball_and_Beag.wav,NOUN-2-600DPI/2015-600.jpg,1,baseball,PARTICIPANT,1,50.66540000000595,0,,known_objects/baseball.png,-0.032407407407407406,,,audio/audio_text/amp_normed/Baseball_and_Beag.wav,,0.015740747804994935,beag,1,This is a baseball and a beag.,2,2024-07-10_02h03.22.353,,43.61640000000596,0,0.029629636693883826,,001
﻿known_objects/camera.png,Win32,55.40410000002384,,,9,,Metalinguistic Conjunctives,51.17330000001191,,right,,left,2024-07-10_02h03.36.590,,,55.903,image_2,,0,,60.24096385541377,001,,metalinguistic_conjunctives_final,53.62080000001192,mutual_ex,,2024.1.5,0,0.5027778060347946,3,0,Choose the hux.,,,,,,,audio/audio_prompt/amp_normed/Camera.wav,NOUN-2-600DPI/2041-600.jpg,1,camera,PARTICIPANT,1,55.40430000001192,0,,known_objects/camera.png,0.4083333898473669,,,audio/audio_text/amp_normed/Camera.wav,,0.0027777707135235824,hux,1,This is a camera.,3,2024-07-10_02h03.22.353,,53.621,0,0.014814800686306424,,001
﻿NOUN-2-600DPI/2017-600.jpg,Win32,60.28430000001192,,,7,,Metalinguistic Conjunctives,55.90340000000595,,right,,left,2024-07-10_02h03.36.590,,,60.78370000001788,image_2,,0,,60.24096385541377,001,,metalinguistic_conjunctives_final,58.36260000002384,label,,2024.1.5,0,0.5249999717429832,4,0,Choose the Jang.,,,,,,,audio/audio_prompt/amp_normed/Jang.wav,NOUN-2-600DPI/2017-600.jpg,1,wrench,PARTICIPANT,1,60.28430000001192,0,,known_objects/wrench.png,0.17314819053367334,,,audio/audio_text/amp_normed/Jang.wav,,0.03518517812093099,jang,1,This is a jang.,4,2024-07-10_02h03.22.353,,58.362700000017874,0,0.018518518518518517,,001
﻿known_objects/car.png,Win32,67.25860000002385,,,2,,Metalinguistic Conjunctives,60.784100000023834,,right,,left,2024-07-10_02h03.36.590,,,67.74690000000595,image_2,,0,,60.24096385541377,001,,metalinguistic_conjunctives_final,65.46540000000596,not,,2024.1.5,0,0.5231481481481481,5,0,Choose the zav.,,,,,,,audio/audio_prompt/amp_normed/Car_not_Zav.wav,NOUN-2-600DPI/2005-600.jpg,1,car,PARTICIPANT,1,67.25870000001788,0,,known_objects/car.png,0.2537037178322121,,,audio/audio_text/amp_normed/Car_not_Zav.wav,,0.023148148148148147,zav,1,"This is a car, not a zav.",5,2024-07-10_02h03.22.353,,65.46570000001788,0,0.03148146028871889,,001
﻿known_objects/clock.png,Win32,74.31049999999999,,,5,,Metalinguistic Conjunctives,67.74740000000597,,right,,left,2024-07-10_02h03.36.590,,,74.81040000000596,image_3,,0,,60.24096385541377,001,,metalinguistic_conjunctives_final,71.04540000000597,or,,2024.1.5,0,-0.42962960843686704,6,0,Choose the dite.,,,,,,,audio/audio_prompt/amp_normed/Clock_or_Dite.wav,NOUN-2-600DPI/2013-600.jpg,1,clock,PARTICIPANT,1,74.31070000001787,0,,known_objects/clock.png,0.19907407407407407,,,audio/audio_text/amp_normed/Clock_or_Dite.wav,,0.03518517812093099,dite,1,This is a clock or a dite.,6,2024-07-10_02h03.22.353,,71.0455,0,0.0009259117974175347,,001
﻿known_objects/cup.png,Win32,80.10820000001789,,,1,,Metalinguistic Conjunctives,74.81890000000595,,right,,left,2024-07-10_02h03.36.590,,,80.60749999999999,image_3,,0,,60.24096385541377,001,,metalinguistic_conjunctives_final,77.65870000001789,or,,2024.1.5,0,-0.5379629488344546,7,0,Choose the hane.,,,,,,,audio/audio_prompt/amp_normed/Cup_or_Hane.wav,NOUN-2-600DPI/2003-600.jpg,1,cup,PARTICIPANT,1,80.10820000001789,0,,known_objects/cup.png,0.15185186598036024,,,audio/audio_text/amp_normed/Cup_or_Hane.wav,,-0.034259266323513456,hane,1,This is a cup or a hane.,7,2024-07-10_02h03.22.353,,77.65880000001192,0,-0.0712963033605505,,001
﻿known_objects/lamp.png,Win32,85.60480000001192,,,4,,Metalinguistic Conjunctives,80.61770000001789,,right,,left,2024-07-10_02h03.36.590,,,86.10490000000596,image_3,,0,,60.24096385541377,001,,metalinguistic_conjunctives_final,83.12290000000596,and,,2024.1.5,0,-0.5092592592592593,8,0,Choose the fimp.,,,,,,,audio/audio_prompt/amp_normed/Lamp_and_Fimp.wav,NOUN-2-600DPI/2010-600.jpg,1,lamp,PARTICIPANT,1,85.60480000001192,0,,known_objects/lamp.png,0.08425924513075086,,,audio/audio_text/amp_normed/Lamp_and_Fimp.wav,,-0.004629629629629629,fimp,1,This is a lamp and a fimp.,8,2024-07-10_02h03.22.353,,83.12299999999999,0,-0.09814813401963976,,001
﻿NOUN-2-600DPI/2007-600.jpg,Win32,89.96960000002383,,,3,,Metalinguistic Conjunctives,86.10530000001191,,right,,left,2024-07-10_02h03.36.590,,,90.46980000001193,image_2,,0,,60.24096385541377,001,,metalinguistic_conjunctives_final,88.57070000001787,label,,2024.1.5,0,0.4990741588451244,9,0,Choose the wupt.,,,,,,,audio/audio_prompt/amp_normed/Wupt.wav,NOUN-2-600DPI/2007-600.jpg,1,headphones,PARTICIPANT,1,89.96980000001193,0,,known_objects/headphones.png,-0.16851849026150173,,,audio/audio_text/amp_normed/Wupt.wav,,-0.034259266323513456,wupt,1,This is a wupt.,9,2024-07-10_02h03.22.353,,88.571,0,-0.03518517812093099,,001
﻿,Win32,,,,,,Metalinguistic Conjunctives,,,,,,2024-07-10_02h03.36.590,,,,,,,,60.24096385541377,001,,metalinguistic_conjunctives_final,,,,2024.1.5,,,,,,92.435,return,,1.913000000000011,,,,,,,PARTICIPANT,,,,,,,,,,90.47120000001789,,,,,,2024-07-10_02h03.22.353,,,,,,001
﻿,MacIntel,,,,,4.627400000005959,Metalinguistic Conjunctives,,return,,,,2024-07-10_02h04.49.138,,,,,0.00030000001192220793,,,62.11180124223462,001,,metalinguistic_conjunctives_final,,,,2024.1.5,,,,,,,,,,,,,,,,PARTICIPANT,,,,,,,,,,,,,,,,2024-07-10_02h04.41.392,,,,,4.65,001
﻿,MacIntel,,0.13026494565217392,,,,Metalinguistic Conjunctives,,,,4.650300000011921,,2024-07-10_02h04.49.138,,,,,,,25.00040000000596,62.11180124223462,001,0,metalinguistic_conjunctives_final,,,,2024.1.5,,,,,,,,0,,0.0017068614130434782,,,,,,PARTICIPANT,,,,1,,,19.824800000011926,,,,,,,,,2024-07-10_02h04.41.392,,,,,,001
﻿,MacIntel,,,31.934300000011923,,,Metalinguistic Conjunctives,,,,,,2024-07-10_02h04.49.138,return,,,,,,,62.11180124223462,001,,metalinguistic_conjunctives_final,,,,2024.1.5,,,,,,,,,,,,,,,,PARTICIPANT,,,,,,,,25.000500000000002,,,,,,,,2024-07-10_02h04.41.392,6.914099999994036,,,,,001
﻿NOUN-2-600DPI/2017-600.jpg,MacIntel,38.28380000001192,,,7,,Metalinguistic Conjunctives,31.94190000000596,,right,,left,2024-07-10_02h04.49.138,,,38.78380000001192,image_2,,0,,62.11180124223462,001,,metalinguistic_conjunctives_final,36.58259999999404,label,,2024.1.5,0,-0.4344089198179272,0,0,Choose the Jang.,,,,,,,audio/audio_prompt/amp_normed/Jang.wav,NOUN-2-600DPI/2017-600.jpg,1,wrench,PARTICIPANT,1,38.284,0,,known_objects/wrench.png,0.13940498074229693,,,audio/audio_text/amp_normed/Jang.wav,,-0.014919248949579833,jang,1,This is a jang.,0,2024-07-10_02h04.41.392,,36.582900000005964,0,0.088000043767507,,001
﻿known_objects/phone.png,MacIntel,43.81709999999404,,,8,,Metalinguistic Conjunctives,38.784700000017885,,left,,right,2024-07-10_02h04.49.138,,,44.317,image_2,,0,,62.11180124223462,001,,metalinguistic_conjunctives_final,41.53370000001788,mutual_ex,,2024.1.5,0,0.5002243084733894,1,0,Choose the bem.,,,,,,,audio/audio_prompt/amp_normed/Phone.wav,NOUN-2-600DPI/2030-600.jpg,1,phone,PARTICIPANT,1,43.81730000001192,0,,known_objects/phone.png,0.1656654849439776,,,audio/audio_text/amp_normed/Phone.wav,,-0.01210171568627451,bem,1,This is a phone.,1,2024-07-10_02h04.41.392,,41.534,0,-0.04282103466386555,,001
﻿known_objects/clock.png,MacIntel,49.88409999999404,,,5,,Metalinguistic Conjunctives,44.31770000001788,,right,,left,2024-07-10_02h04.49.138,,,50.38290000000596,image_3,,0,,62.11180124223462,001,,metalinguistic_conjunctives_final,46.98380000001192,or,,2024.1.5,0,0.4885876225490196,2,0,Choose the dite.,,,,,,,audio/audio_prompt/amp_normed/Clock_or_Dite.wav,NOUN-2-600DPI/2013-600.jpg,1,clock,PARTICIPANT,1,49.884200000017884,0,,known_objects/clock.png,0.35843946953781514,,,audio/audio_text/amp_normed/Clock_or_Dite.wav,,0.07374824929971989,dite,1,This is a clock or a dite.,2,2024-07-10_02h04.41.392,,46.984,0,-0.07682291666666667,,001
﻿NOUN-2-600DPI/2007-600.jpg,MacIntel,53.41680000001192,,,3,,Metalinguistic Conjunctives,50.38340000000596,,left,,right,2024-07-10_02h04.49.138,,,53.91730000001192,image_2,,0,,62.11180124223462,001,,metalinguistic_conjunctives_final,52.20020000001788,label,,2024.1.5,0,0.5454580269607843,3,0,Choose the wupt.,,,,,,,audio/audio_prompt/amp_normed/Wupt.wav,NOUN-2-600DPI/2007-600.jpg,1,headphones,PARTICIPANT,1,53.41690000000596,0,,known_objects/headphones.png,0.32823988970588236,,,audio/audio_text/amp_normed/Wupt.wav,,0.0063025210084033615,wupt,1,This is a wupt.,3,2024-07-10_02h04.41.392,,52.2005,0,-0.024766938025210083,,001
﻿known_objects/lamp.png,MacIntel,57.116800000011914,,,4,,Metalinguistic Conjunctives,53.91780000001192,,left,,right,2024-07-10_02h04.49.138,,,57.61709999999403,image_3,,0,,62.11180124223462,001,,metalinguistic_conjunctives_final,56.0335,and,,2024.1.5,0,0.5184370623249299,4,0,Choose the fimp.,,,,,,,audio/audio_prompt/amp_normed/Lamp_and_Fimp.wav,NOUN-2-600DPI/2010-600.jpg,1,lamp,PARTICIPANT,1,57.11690000000595,0,,known_objects/lamp.png,0.2656687675070028,,,audio/audio_text/amp_normed/Lamp_and_Fimp.wav,,0.04138764880952381,fimp,1,This is a lamp and a fimp.,4,2024-07-10_02h04.41.392,,56.03359999999403,0,-0.08868938200280112,,001
﻿known_objects/camera.png,MacIntel,60.733300000011916,,,9,,Metalinguistic Conjunctives,57.617599999994034,,right,,left,2024-07-10_02h04.49.138,,,61.2335,image_2,,0,,62.11180124223462,001,,metalinguistic_conjunctives_final,59.21680000001191,mutual_ex,,2024.1.5,0,-0.5143776260504201,5,0,Choose the hux.,,,,,,,audio/audio_prompt/amp_normed/Camera.wav,NOUN-2-600DPI/2041-600.jpg,1,camera,PARTICIPANT,1,60.73340000000595,0,,known_objects/camera.png,0.33283000700280113,,,audio/audio_text/amp_normed/Camera.wav,,-0.004524466036414566,hux,1,This is a camera.,5,2024-07-10_02h04.41.392,,59.21690000000596,0,-0.003780418417366947,,001
﻿known_objects/cup.png,MacIntel,63.63309999999404,,,1,,Metalinguistic Conjunctives,61.23399999999999,,left,,right,2024-07-10_02h04.49.138,,,64.13330000001193,image_3,,0,,62.11180124223462,001,,metalinguistic_conjunctives_final,62.43340000000595,or,,2024.1.5,0,-0.4745273109243697,6,0,Choose the hane.,,,,,,,audio/audio_prompt/amp_normed/Cup_or_Hane.wav,NOUN-2-600DPI/2003-600.jpg,1,cup,PARTICIPANT,1,63.63330000001192,0,,known_objects/cup.png,0.14307050945378152,,,audio/audio_text/amp_normed/Cup_or_Hane.wav,,0.031135110294117647,hane,1,This is a cup or a hane.,6,2024-07-10_02h04.41.392,,62.43359999999404,0,-0.031955751050420166,,001
﻿known_objects/baseball.png,MacIntel,67.44990000000595,,,0,,Metalinguistic Conjunctives,64.13359999999405,,right,,left,2024-07-10_02h04.49.138,,,67.94930000001192,image_3,,0,,62.11180124223462,001,,metalinguistic_conjunctives_final,66.41690000000597,and,,2024.1.5,0,0.5264355742296919,7,0,Choose the beag.,,,,,,,audio/audio_prompt/amp_normed/Baseball_and_Beag.wav,NOUN-2-600DPI/2015-600.jpg,1,baseball,PARTICIPANT,1,67.45,0,,known_objects/baseball.png,0.06307444852941177,,,audio/audio_text/amp_normed/Baseball_and_Beag.wav,,0.015515581232492998,beag,1,This is a baseball and a beag.,7,2024-07-10_02h04.41.392,,66.417,0,-0.15513392857142858,,001
﻿known_objects/backpack.png,MacIntel,72.63420000001788,,,6,,Metalinguistic Conjunctives,67.94970000001788,,left,,right,2024-07-10_02h04.49.138,,,73.13330000001193,image_2,,0,,62.11180124223462,001,,metalinguistic_conjunctives_final,70.65009999999404,not,,2024.1.5,0,0.514311974789916,8,0,Choose the pank.,,,,,,,audio/audio_prompt/amp_normed/Backpack_not_Pank.wav,NOUN-2-600DPI/2014-600.jpg,1,backpack,PARTICIPANT,1,72.63440000000597,0,,known_objects/backpack.png,0.26147255777310924,,,audio/audio_text/amp_normed/Backpack_not_Pank.wav,,-0.007785145308123249,pank,1,"This is a backpack, not a pank.",8,2024-07-10_02h04.41.392,,70.65030000001192,0,-0.012025122549019608,,001
﻿known_objects/car.png,MacIntel,77.25,,,2,,Metalinguistic Conjunctives,73.13790000000596,,left,,right,2024-07-10_02h04.49.138,,,77.75020000001788,image_2,,0,,62.11180124223462,001,,metalinguistic_conjunctives_final,75.30040000000596,not,,2024.1.5,0,-0.44558057598039214,9,0,Choose the zav.,,,,,,,audio/audio_prompt/amp_normed/Car_not_Zav.wav,NOUN-2-600DPI/2005-600.jpg,1,car,PARTICIPANT,1,77.25009999999403,0,,known_objects/car.png,0.3594734768907563,,,audio/audio_text/amp_normed/Car_not_Zav.wav,,-0.018694196428571428,zav,1,"This is a car, not a zav.",9,2024-07-10_02h04.41.392,,75.30059999999403,0,0.03815979516806723,,001
﻿,MacIntel,,,,,,Metalinguistic Conjunctives,,,,,,2024-07-10_02h04.49.138,,,,,,,,62.11180124223462,001,,metalinguistic_conjunctives_final,,,,2024.1.5,,,,,,79.43380000001193,return,,1.6525000000000034,,,,,,,PARTICIPANT,,,,,,,,,,77.75259999999405,,,,,,2024-07-10_02h04.41.392,,,,,,001
﻿,Win32,,,,,4.965700000001117,Metalinguistic Conjunctives,,return,,,,2024-07-10_01h05.08.160,,668cb1b00cc4411c50945566,,,0.00010000000149013033,,,144.9275362318917,001,,metalinguistic_conjunctives_final,,,,2024.1.5,,,,,,,,,,,,,,,,PARTICIPANT,,,,,,,,,,,,,,,,2024-07-10_01h04.59.127,,,,,4.976100000001491,001
﻿,Win32,,-0.07314814814814814,,,,Metalinguistic Conjunctives,,,,4.976200000001118,,2024-07-10_01h05.08.160,,668cb1b00cc4411c50945566,,,,,7.8731000000014895,144.9275362318917,001,0,metalinguistic_conjunctives_final,,,,2024.1.5,,,,,,,,0,,0.5722222222222222,,,,,,PARTICIPANT,,,,1,,,2.3885000000000005,,,,,,,,,2024-07-10_01h04.59.127,,,,,,001
﻿,Win32,,,10.831100000001491,,,Metalinguistic Conjunctives,,,,,,2024-07-10_01h05.08.160,return,668cb1b00cc4411c50945566,,,,,,144.9275362318917,001,,metalinguistic_conjunctives_final,,,,2024.1.5,,,,,,,,,,,,,,,,PARTICIPANT,,,,,,,,7.87320000000112,,,,,,,,2024-07-10_01h04.59.127,2.9490000000000016,,,,,001
﻿known_objects/clock.png,Win32,16.797300000000746,,,5,,Metalinguistic Conjunctives,10.833900000000373,,right,,left,2024-07-10_01h05.08.160,,668cb1b00cc4411c50945566,17.29720000000112,image_3,,0,,144.9275362318917,001,,metalinguistic_conjunctives_final,14.574700000001119,or,,2024.1.5,0,0.49444444444444446,0,0,Choose the dite.,,,,,,,audio/audio_prompt/amp_normed/Clock_or_Dite.wav,NOUN-2-600DPI/2013-600.jpg,1,clock,PARTICIPANT,1,16.797400000000373,0,,known_objects/clock.png,0.2972222222222222,,,audio/audio_text/amp_normed/Clock_or_Dite.wav,,0.03611111111111111,dite,1,This is a clock or a dite.,0,2024-07-10_01h04.59.127,,14.574800000000746,0,-0.39444444444444443,,001
﻿known_objects/camera.png,Win32,21.964600000001493,,,9,,Metalinguistic Conjunctives,17.297400000000373,,right,,left,2024-07-10_01h05.08.160,,668cb1b00cc4411c50945566,22.464499999999997,image_2,,0,,144.9275362318917,001,,metalinguistic_conjunctives_final,19.478,mutual_ex,,2024.1.5,0,0.4981481481481482,1,0,Choose the hux.,,,,,,,audio/audio_prompt/amp_normed/Camera.wav,NOUN-2-600DPI/2041-600.jpg,1,camera,PARTICIPANT,1,21.96470000000112,0,,known_objects/camera.png,0.062037037037037036,,,audio/audio_text/amp_normed/Camera.wav,,-0.006481481481481481,hux,1,This is a camera.,1,2024-07-10_01h04.59.127,,19.478,0,-0.41388888888888886,,001
﻿NOUN-2-600DPI/2007-600.jpg,Win32,26.347100000001497,,,3,,Metalinguistic Conjunctives,22.46470000000112,,left,,right,2024-07-10_01h05.08.160,,668cb1b00cc4411c50945566,26.847200000001123,image_2,,0,,144.9275362318917,001,,metalinguistic_conjunctives_final,24.499600000001493,label,,2024.1.5,0,0.5046296296296297,2,0,Choose the wupt.,,,,,,,audio/audio_prompt/amp_normed/Wupt.wav,NOUN-2-600DPI/2007-600.jpg,1,headphones,PARTICIPANT,1,26.347200000001123,0,,known_objects/headphones.png,0.23796296296296296,,,audio/audio_text/amp_normed/Wupt.wav,,0,wupt,1,This is a wupt.,2,2024-07-10_01h04.59.127,,24.499800000000747,0,-0.3907407407407407,,001
﻿known_objects/car.png,Win32,31.973000000000006,,,2,,Metalinguistic Conjunctives,26.84730000000075,,right,,left,2024-07-10_01h05.08.160,,668cb1b00cc4411c50945566,32.47290000000038,image_2,,0,,144.9275362318917,001,,metalinguistic_conjunctives_final,30.021100000001496,not,,2024.1.5,0,-0.47129629629629627,3,0,Choose the zav.,,,,,,,audio/audio_prompt/amp_normed/Car_not_Zav.wav,NOUN-2-600DPI/2005-600.jpg,1,car,PARTICIPANT,1,31.973000000000006,0,,known_objects/car.png,0.002777777777777778,,,audio/audio_text/amp_normed/Car_not_Zav.wav,,-0.009259259259259259,zav,1,"This is a car, not a zav.",3,2024-07-10_01h04.59.127,,30.021200000001123,0,-0.23703703703703705,,001
﻿known_objects/lamp.png,Win32,38.00840000000038,,,4,,Metalinguistic Conjunctives,32.473000000000006,,left,,right,2024-07-10_01h05.08.160,,668cb1b00cc4411c50945566,38.508500000000005,image_3,,0,,144.9275362318917,001,,metalinguistic_conjunctives_final,35.93920000000112,and,,2024.1.5,0,-0.5722222222222222,4,0,Choose the fimp.,,,,,,,audio/audio_prompt/amp_normed/Lamp_and_Fimp.wav,NOUN-2-600DPI/2010-600.jpg,1,lamp,PARTICIPANT,1,38.008500000000005,0,,known_objects/lamp.png,0.03888888888888889,,,audio/audio_text/amp_normed/Lamp_and_Fimp.wav,,-0.10740740740740741,fimp,1,This is a lamp and a fimp.,4,2024-07-10_01h04.59.127,,35.93920000000112,0,-0.39537037037037037,,001
﻿known_objects/backpack.png,Win32,45.099600000001494,,,6,,Metalinguistic Conjunctives,38.50870000000112,,left,,right,2024-07-10_01h05.08.160,,668cb1b00cc4411c50945566,45.59970000000112,image_2,,0,,144.9275362318917,001,,metalinguistic_conjunctives_final,42.529900000000374,not,,2024.1.5,0,-0.4101851851851852,5,0,Choose the pank.,,,,,,,audio/audio_prompt/amp_normed/Backpack_not_Pank.wav,NOUN-2-600DPI/2014-600.jpg,1,backpack,PARTICIPANT,1,45.09970000000112,0,,known_objects/backpack.png,0.33611111111111114,,,audio/audio_text/amp_normed/Backpack_not_Pank.wav,,-0.007407407407407408,pank,1,"This is a backpack, not a pank.",5,2024-07-10_01h04.59.127,,42.53,0,-0.4203703703703704,,001
﻿known_objects/baseball.png,Win32,53.851000000000006,,,0,,Metalinguistic Conjunctives,45.599900000000375,,right,,left,2024-07-10_01h05.08.160,,668cb1b00cc4411c50945566,54.35110000000149,image_2,,0,,144.9275362318917,001,,metalinguistic_conjunctives_final,50.49630000000075,and,,2024.1.5,0,-0.5333333333333333,6,0,Choose the beag.,,,,,,,audio/audio_prompt/amp_normed/Baseball_and_Beag.wav,NOUN-2-600DPI/2015-600.jpg,1,baseball,PARTICIPANT,1,53.85110000000149,0,,known_objects/baseball.png,0.040740740740740744,,,audio/audio_text/amp_normed/Baseball_and_Beag.wav,,-0.000925925925925926,beag,1,This is a baseball and a beag.,6,2024-07-10_01h04.59.127,,50.49630000000075,0,-0.39166666666666666,,001
﻿known_objects/phone.png,Win32,64.44320000000111,,,8,,Metalinguistic Conjunctives,54.35570000000113,,left,,right,2024-07-10_01h05.08.160,,668cb1b00cc4411c50945566,64.94320000000111,image_2,,0,,144.9275362318917,001,,metalinguistic_conjunctives_final,57.052800000000744,mutual_ex,,2024.1.5,0,0.5092592592592593,7,0,Choose the bem.,,,,,,,audio/audio_prompt/amp_normed/Phone.wav,NOUN-2-600DPI/2030-600.jpg,1,phone,PARTICIPANT,1,64.44330000000075,0,,known_objects/phone.png,0.019444444444444445,,,audio/audio_text/amp_normed/Phone.wav,,-0.022222222222222223,bem,1,This is a phone.,7,2024-07-10_01h04.59.127,,57.052800000000744,0,-0.4185185185185185,,001
﻿known_objects/cup.png,Win32,68.95730000000074,,,1,,Metalinguistic Conjunctives,64.948,,right,,left,2024-07-10_01h05.08.160,,668cb1b00cc4411c50945566,69.45740000000038,image_3,,0,,144.9275362318917,001,,metalinguistic_conjunctives_final,67.34610000000148,or,,2024.1.5,0,0.4962962962962963,8,0,Choose the hane.,,,,,,,audio/audio_prompt/amp_normed/Cup_or_Hane.wav,NOUN-2-600DPI/2003-600.jpg,1,cup,PARTICIPANT,1,68.95740000000038,0,,known_objects/cup.png,0.002777777777777778,,,audio/audio_text/amp_normed/Cup_or_Hane.wav,,0.025,hane,1,This is a cup or a hane.,8,2024-07-10_01h04.59.127,,67.34610000000148,0,-0.39537037037037037,,001
﻿NOUN-2-600DPI/2017-600.jpg,Win32,72.6246000000015,,,7,,Metalinguistic Conjunctives,69.45760000000149,,left,,right,2024-07-10_01h05.08.160,,668cb1b00cc4411c50945566,73.1245,image_2,,0,,144.9275362318917,001,,metalinguistic_conjunctives_final,71.04090000000036,label,,2024.1.5,0,0.49722222222222223,9,0,Choose the Jang.,,,,,,,audio/audio_prompt/amp_normed/Jang.wav,NOUN-2-600DPI/2017-600.jpg,1,wrench,PARTICIPANT,1,72.6246000000015,0,,known_objects/wrench.png,-0.002777777777777778,,,audio/audio_text/amp_normed/Jang.wav,,0.020370370370370372,jang,1,This is a jang.,9,2024-07-10_01h04.59.127,,71.041,0,-0.4046296296296296,,001
﻿,Win32,,,,,,Metalinguistic Conjunctives,,,,,,2024-07-10_01h05.08.160,,668cb1b00cc4411c50945566,,,,,,144.9275362318917,001,,metalinguistic_conjunctives_final,,,,2024.1.5,,,,,,75.1735,return,,2.0371999999992596,,,,,,,PARTICIPANT,,,,,,,,,,73.12480000000075,,,,,,2024-07-10_01h04.59.127,,,,,,001
﻿,Win32,,,,,5.227900000095367,Metalinguistic Conjunctives,,return,,,,2024-07-10_02h04.50.378,,,,,0.0008000001907362275,,,60.24096385542697,001,,metalinguistic_conjunctives_final,,,,2024.1.5,,,,,,,,,,,,,,,,PARTICIPANT,,,,,,,,,,,,,,,,2024-07-10_02h04.35.645,,,,,5.262500000000003,001
﻿,Win32,,-0.1826188305201583,,,,Metalinguistic Conjunctives,,,,5.263000000000002,,2024-07-10_02h04.50.378,,,,,,,24.841000000000008,60.24096385542697,001,0,metalinguistic_conjunctives_final,,,,2024.1.5,,,,,,,,0,,-0.13492852740606306,,,,,,PARTICIPANT,,,,1,,,19.040300000190737,,,,,,,,,2024-07-10_02h04.35.645,,,,,,001
﻿,Win32,,,28.16250000000001,,,Metalinguistic Conjunctives,,,,,,2024-07-10_02h04.50.378,return,,,,,,,60.24096385542697,001,,metalinguistic_conjunctives_final,,,,2024.1.5,,,,,,,,,,,,,,,,PARTICIPANT,,,,,,,,24.84119999980927,,,,,,,,2024-07-10_02h04.35.645,3.2811999998092602,,,,,001
﻿known_objects/clock.png,Win32,37.83519999980927,,,5,,Metalinguistic Conjunctives,28.18390000009537,,left,,right,2024-07-10_02h04.50.378,,,38.33709999990464,image_3,,0,,60.24096385542697,001,,metalinguistic_conjunctives_final,32.908099999904636,or,,2024.1.5,0,0.47258225324027914,0,0,Choose the dite.,,,,,,,audio/audio_prompt/amp_normed/Clock_or_Dite.wav,NOUN-2-600DPI/2013-600.jpg,1,clock,PARTICIPANT,1,37.83590000009537,0,,known_objects/clock.png,-0.13492852740606306,,,audio/audio_text/amp_normed/Clock_or_Dite.wav,,0.029411764705882353,dite,1,This is a clock or a dite.,0,2024-07-10_02h04.35.645,,32.91030000019074,0,-0.1826188305201583,,001
﻿NOUN-2-600DPI/2017-600.jpg,Win32,43.12890000009537,,,7,,Metalinguistic Conjunctives,38.33980000019074,,left,,right,2024-07-10_02h04.50.378,,,43.61890000009537,image_2,,0,,60.24096385542697,001,,metalinguistic_conjunctives_final,41.02100000000001,label,,2024.1.5,0,-0.4380192552226134,1,0,Choose the Jang.,,,,,,,audio/audio_prompt/amp_normed/Jang.wav,NOUN-2-600DPI/2017-600.jpg,1,wrench,PARTICIPANT,1,43.12919999980927,0,,known_objects/wrench.png,0.2246593958359297,,,audio/audio_text/amp_normed/Jang.wav,,-0.012462612163509471,jang,1,This is a jang.,1,2024-07-10_02h04.35.645,,41.0215,0,-0.16400797607178463,,001
﻿known_objects/lamp.png,Win32,52.12130000019074,,,4,,Metalinguistic Conjunctives,43.62140000009537,,right,,left,2024-07-10_02h04.50.378,,,52.619599999904636,image_2,,0,,60.24096385542697,001,,metalinguistic_conjunctives_final,46.55990000009537,and,,2024.1.5,0,-0.4074443235235699,2,0,Choose the fimp.,,,,,,,audio/audio_prompt/amp_normed/Lamp_and_Fimp.wav,NOUN-2-600DPI/2010-600.jpg,1,lamp,PARTICIPANT,1,52.121800000190746,0,,known_objects/lamp.png,-0.21801258821192673,,,audio/audio_text/amp_normed/Lamp_and_Fimp.wav,,-0.025756105706318543,fimp,1,This is a lamp and a fimp.,2,2024-07-10_02h04.35.645,,46.56019999980927,0,-0.2391160259456007,,001
﻿known_objects/phone.png,Win32,58.48540000009537,,,8,,Metalinguistic Conjunctives,52.65759999990463,,right,,left,2024-07-10_02h04.50.378,,,58.977900000095374,image_2,,0,,60.24096385542697,001,,metalinguistic_conjunctives_final,54.70809999990463,mutual_ex,,2024.1.5,0,0.48255234297108673,3,0,Choose the bem.,,,,,,,audio/audio_prompt/amp_normed/Phone.wav,NOUN-2-600DPI/2030-600.jpg,1,phone,PARTICIPANT,1,58.485800000190736,0,,known_objects/phone.png,-0.27916251246261214,,,audio/audio_text/amp_normed/Phone.wav,,-0.054336989032901295,bem,1,This is a phone.,3,2024-07-10_02h04.35.645,,54.7085,0,-0.1560319042871386,,001
﻿known_objects/backpack.png,Win32,65.4835,,,6,,Metalinguistic Conjunctives,59.000800000190736,,left,,right,2024-07-10_02h04.50.378,,,65.98230000019073,image_2,,0,,60.24096385542697,001,,metalinguistic_conjunctives_final,62.199300000190746,not,,2024.1.5,0,0.4911931685412512,4,0,Choose the pank.,,,,,,,audio/audio_prompt/amp_normed/Backpack_not_Pank.wav,NOUN-2-600DPI/2014-600.jpg,1,backpack,PARTICIPANT,1,65.48359999990464,0,,known_objects/backpack.png,0.3609172482552343,,,audio/audio_text/amp_normed/Backpack_not_Pank.wav,,-0.028414755732801594,pank,1,"This is a backpack, not a pank.",4,2024-07-10_02h04.35.645,,62.199599999904635,0,-0.11748093122974826,,001
﻿known_objects/camera.png,Win32,70.69490000009537,,,9,,Metalinguistic Conjunctives,66.02630000019074,,left,,right,2024-07-10_02h04.50.378,,,71.18519999980927,image_2,,0,,60.24096385542697,001,,metalinguistic_conjunctives_final,68.32490000009537,mutual_ex,,2024.1.5,0,-0.44666001994017945,5,0,Choose the hux.,,,,,,,audio/audio_prompt/amp_normed/Camera.wav,NOUN-2-600DPI/2041-600.jpg,1,camera,PARTICIPANT,1,70.696,0,,known_objects/camera.png,0.42937861221024426,,,audio/audio_text/amp_normed/Camera.wav,,0.004154193912403415,hux,1,This is a camera.,5,2024-07-10_02h04.35.645,,68.32519999980927,0,-0.14539718247600947,,001
﻿NOUN-2-600DPI/2007-600.jpg,Win32,75.89030000019073,,,3,,Metalinguistic Conjunctives,71.22409999990464,,left,,right,2024-07-10_02h04.50.378,,,76.38859999990464,image_2,,0,,60.24096385542697,001,,metalinguistic_conjunctives_final,73.17359999990464,label,,2024.1.5,0,-0.48255234297108673,6,0,Choose the wupt.,,,,,,,audio/audio_prompt/amp_normed/Wupt.wav,NOUN-2-600DPI/2007-600.jpg,1,headphones,PARTICIPANT,1,75.89109999990464,0,,known_objects/headphones.png,-0.3349950149551346,,,audio/audio_text/amp_normed/Wupt.wav,,0.007477567298105683,wupt,1,This is a wupt.,6,2024-07-10_02h04.35.645,,73.17440000009537,0,-0.14007976071784647,,001
﻿known_objects/baseball.png,Win32,81.88909999990464,,,0,,Metalinguistic Conjunctives,76.39440000009537,,left,,right,2024-07-10_02h04.50.378,,,82.38590000009538,image_3,,0,,60.24096385542697,001,,metalinguistic_conjunctives_final,79.20080000019074,and,,2024.1.5,0,0.44599538785985793,7,0,Choose the beag.,,,,,,,audio/audio_prompt/amp_normed/Baseball_and_Beag.wav,NOUN-2-600DPI/2015-600.jpg,1,baseball,PARTICIPANT,1,81.88969999980927,0,,known_objects/baseball.png,-0.386839481555334,,,audio/audio_text/amp_normed/Baseball_and_Beag.wav,,0.00614821185856493,beag,1,This is a baseball and a beag.,7,2024-07-10_02h04.35.645,,79.20159999990464,0,-0.08956467998348704,,001
﻿known_objects/cup.png,Win32,87.84869999980927,,,1,,Metalinguistic Conjunctives,82.38890000009538,,left,,right,2024-07-10_02h04.50.378,,,88.34909999990464,image_3,,0,,60.24096385542697,001,,metalinguistic_conjunctives_final,85.65809999990464,or,,2024.1.5,0,0.42738459426408276,8,0,Choose the hane.,,,,,,,audio/audio_prompt/amp_normed/Cup_or_Hane.wav,NOUN-2-600DPI/2003-600.jpg,1,cup,PARTICIPANT,1,87.84990000009537,0,,known_objects/cup.png,0.2711864406779661,,,audio/audio_text/amp_normed/Cup_or_Hane.wav,,-0.011133287150267946,hane,1,This is a cup or a hane.,8,2024-07-10_02h04.35.645,,85.65830000019074,0,-0.04702561018117522,,001
﻿known_objects/car.png,Win32,93.23930000019074,,,2,,Metalinguistic Conjunctives,88.35050000000001,,left,,right,2024-07-10_02h04.50.378,,,93.73109999990464,image_2,,0,,60.24096385542697,001,,metalinguistic_conjunctives_final,91.18119999980927,not,,2024.1.5,0,-0.485211023423869,9,0,Choose the zav.,,,,,,,audio/audio_prompt/amp_normed/Car_not_Zav.wav,NOUN-2-600DPI/2005-600.jpg,1,car,PARTICIPANT,1,93.23969999980928,0,,known_objects/car.png,0.41940852247943666,,,audio/audio_text/amp_normed/Car_not_Zav.wav,,-0.02243270189431705,zav,1,"This is a car, not a zav.",9,2024-07-10_02h04.35.645,,91.18159999990463,0,-0.007809913764565678,,001
﻿,Win32,,,,,,Metalinguistic Conjunctives,,,,,,2024-07-10_02h04.50.378,,,,,,,,60.24096385542697,001,,metalinguistic_conjunctives_final,,,,2024.1.5,,,,,,95.78119999980927,return,,1.9824000000953674,,,,,,,PARTICIPANT,,,,,,,,,,93.73400000000001,,,,,,2024-07-10_02h04.35.645,,,,,,001
﻿,MacIntel,,,,,5.187999999999999,Metalinguistic Conjunctives,,return,,,,2024-07-09_23h10.41.743,,,,,0,,,58.8235294117647,001,,metalinguistic_conjunctives_final,,,,2024.1.5,,,,,,,,,,,,,,,,PARTICIPANT,,,,,,,,,,,,,,,,2024-07-09_23h10.32.341,,,,,5.245999999999999,001
﻿,MacIntel,,-0.13035714285714287,,,,Metalinguistic Conjunctives,,,,5.245999999999999,,2024-07-09_23h10.41.743,,,,,,,20.729000000000006,58.8235294117647,001,0,metalinguistic_conjunctives_final,,,,2024.1.5,,,,,,,,0,,0.3669642857142857,,,,,,PARTICIPANT,,,,1,,,14.963000000000001,,,,,,,,,2024-07-09_23h10.32.341,,,,,,001
﻿,MacIntel,,,26.646,,,Metalinguistic Conjunctives,,,,,,2024-07-09_23h10.41.743,return,,,,,,,58.8235294117647,001,,metalinguistic_conjunctives_final,,,,2024.1.5,,,,,,,,,,,,,,,,PARTICIPANT,,,,,,,,20.729000000000006,,,,,,,,2024-07-09_23h10.32.341,5.850000000000001,,,,,001
﻿NOUN-2-600DPI/2017-600.jpg,MacIntel,33.212,,,7,,Metalinguistic Conjunctives,26.652,,left,,right,2024-07-09_23h10.41.743,,,33.712,image_2,,0,,58.8235294117647,001,,metalinguistic_conjunctives_final,30.512,label,,2024.1.5,0,-0.4044642857142857,0,0,Choose the Jang.,,,,,,,audio/audio_prompt/amp_normed/Jang.wav,NOUN-2-600DPI/2017-600.jpg,1,wrench,PARTICIPANT,1,33.212,0,,known_objects/wrench.png,0.3669642857142857,,,audio/audio_text/amp_normed/Jang.wav,,-0.01607142857142857,jang,1,This is a jang.,0,2024-07-09_23h10.32.341,,30.513000000000005,0,-0.13035714285714287,,001
﻿known_objects/clock.png,MacIntel,40.646,,,5,,Metalinguistic Conjunctives,33.712,,left,,right,2024-07-09_23h10.41.743,,,41.145,image_3,,0,,58.8235294117647,001,,metalinguistic_conjunctives_final,37.864000000000004,or,,2024.1.5,0,0.40625,1,0,Choose the dite.,,,,,,,audio/audio_prompt/amp_normed/Clock_or_Dite.wav,NOUN-2-600DPI/2013-600.jpg,1,clock,PARTICIPANT,1,40.646,0,,known_objects/clock.png,-0.3357142857142857,,,audio/audio_text/amp_normed/Clock_or_Dite.wav,,0.011607142857142858,dite,1,This is a clock or a dite.,1,2024-07-09_23h10.32.341,,37.864000000000004,0,-0.022321428571428572,,001
﻿known_objects/cup.png,MacIntel,46.431000000000004,,,1,,Metalinguistic Conjunctives,41.145,,right,,left,2024-07-09_23h10.41.743,,,46.93600000000001,image_3,,0,,58.8235294117647,001,,metalinguistic_conjunctives_final,44.246,or,,2024.1.5,0,0.525,2,0,Choose the hane.,,,,,,,audio/audio_prompt/amp_normed/Cup_or_Hane.wav,NOUN-2-600DPI/2003-600.jpg,1,cup,PARTICIPANT,1,46.431000000000004,0,,known_objects/cup.png,0.4589285714285714,,,audio/audio_text/amp_normed/Cup_or_Hane.wav,,0.02857142857142857,hane,1,This is a cup or a hane.,2,2024-07-09_23h10.32.341,,44.246,0,-0.017857142857142856,,001
﻿NOUN-2-600DPI/2007-600.jpg,MacIntel,51.86500000000001,,,3,,Metalinguistic Conjunctives,46.93600000000001,,left,,right,2024-07-09_23h10.41.743,,,52.345,image_2,,0,,58.8235294117647,001,,metalinguistic_conjunctives_final,49.697,label,,2024.1.5,0,0.4669642857142857,3,0,Choose the wupt.,,,,,,,audio/audio_prompt/amp_normed/Wupt.wav,NOUN-2-600DPI/2007-600.jpg,1,headphones,PARTICIPANT,1,51.86500000000001,0,,known_objects/headphones.png,0.23660714285714285,,,audio/audio_text/amp_normed/Wupt.wav,,-0.007142857142857143,wupt,1,This is a wupt.,3,2024-07-09_23h10.32.341,,49.697,0,-0.21696428571428572,,001
﻿known_objects/lamp.png,MacIntel,57.44599999999999,,,4,,Metalinguistic Conjunctives,52.346000000000004,,right,,left,2024-07-09_23h10.41.743,,,57.945,image_3,,0,,58.8235294117647,001,,metalinguistic_conjunctives_final,55.29399999999999,and,,2024.1.5,0,0.5080357142857143,4,0,Choose the fimp.,,,,,,,audio/audio_prompt/amp_normed/Lamp_and_Fimp.wav,NOUN-2-600DPI/2010-600.jpg,1,lamp,PARTICIPANT,1,57.44599999999999,0,,known_objects/lamp.png,0.1125,,,audio/audio_text/amp_normed/Lamp_and_Fimp.wav,,0.019642857142857142,fimp,1,This is a lamp and a fimp.,4,2024-07-09_23h10.32.341,,55.29399999999999,0,-0.2598214285714286,,001
﻿known_objects/backpack.png,MacIntel,64.12799999999999,,,6,,Metalinguistic Conjunctives,57.94599999999999,,left,,right,2024-07-09_23h10.41.743,,,64.62899999999999,image_2,,0,,58.8235294117647,001,,metalinguistic_conjunctives_final,61.279,not,,2024.1.5,0,0.5517857142857143,5,0,Choose the pank.,,,,,,,audio/audio_prompt/amp_normed/Backpack_not_Pank.wav,NOUN-2-600DPI/2014-600.jpg,1,backpack,PARTICIPANT,1,64.12799999999999,0,,known_objects/backpack.png,0.12946428571428573,,,audio/audio_text/amp_normed/Backpack_not_Pank.wav,,0.023214285714285715,pank,1,"This is a backpack, not a pank.",5,2024-07-09_23h10.32.341,,61.279,0,-0.2544642857142857,,001
﻿known_objects/car.png,MacIntel,70.74600000000001,,,2,,Metalinguistic Conjunctives,64.62899999999999,,right,,left,2024-07-09_23h10.41.743,,,71.245,image_2,,0,,58.8235294117647,001,,metalinguistic_conjunctives_final,67.56199999999998,not,,2024.1.5,0,-0.4982142857142857,6,0,Choose the zav.,,,,,,,audio/audio_prompt/amp_normed/Car_not_Zav.wav,NOUN-2-600DPI/2005-600.jpg,1,car,PARTICIPANT,1,70.74699999999999,0,,known_objects/car.png,0.125,,,audio/audio_text/amp_normed/Car_not_Zav.wav,,-0.01607142857142857,zav,1,"This is a car, not a zav.",6,2024-07-09_23h10.32.341,,67.56199999999998,0,-0.2794642857142857,,001
﻿known_objects/phone.png,MacIntel,76.161,,,8,,Metalinguistic Conjunctives,71.24600000000001,,left,,right,2024-07-09_23h10.41.743,,,76.64599999999999,image_2,,0,,58.8235294117647,001,,metalinguistic_conjunctives_final,73.963,mutual_ex,,2024.1.5,0,0.4973214285714286,7,0,Choose the bem.,,,,,,,audio/audio_prompt/amp_normed/Phone.wav,NOUN-2-600DPI/2030-600.jpg,1,phone,PARTICIPANT,1,76.161,0,,known_objects/phone.png,-0.2017857142857143,,,audio/audio_text/amp_normed/Phone.wav,,-0.026785714285714284,bem,1,This is a phone.,7,2024-07-09_23h10.32.341,,73.963,0,-0.29464285714285715,,001
﻿known_objects/baseball.png,MacIntel,82.012,,,0,,Metalinguistic Conjunctives,76.64599999999999,,right,,left,2024-07-09_23h10.41.743,,,82.49799999999999,image_3,,0,,58.8235294117647,001,,metalinguistic_conjunctives_final,79.773,and,,2024.1.5,0,0.49375,8,0,Choose the beag.,,,,,,,audio/audio_prompt/amp_normed/Baseball_and_Beag.wav,NOUN-2-600DPI/2015-600.jpg,1,baseball,PARTICIPANT,1,82.012,0,,known_objects/baseball.png,0.07410714285714286,,,audio/audio_text/amp_normed/Baseball_and_Beag.wav,,0.03214285714285714,beag,1,This is a baseball and a beag.,8,2024-07-09_23h10.32.341,,79.773,0,-0.26607142857142857,,001
﻿known_objects/camera.png,MacIntel,87.19399999999999,,,9,,Metalinguistic Conjunctives,82.49799999999999,,right,,left,2024-07-09_23h10.41.743,,,87.695,image_2,,0,,58.8235294117647,001,,metalinguistic_conjunctives_final,84.612,mutual_ex,,2024.1.5,0,0.4928571428571429,9,0,Choose the hux.,,,,,,,audio/audio_prompt/amp_normed/Camera.wav,NOUN-2-600DPI/2041-600.jpg,1,camera,PARTICIPANT,1,87.19399999999999,0,,known_objects/camera.png,-0.07410714285714286,,,audio/audio_text/amp_normed/Camera.wav,,0.04375,hux,1,This is a camera.,9,2024-07-09_23h10.32.341,,84.612,0,-0.30178571428571427,,001
﻿,MacIntel,,,,,,Metalinguistic Conjunctives,,,,,,2024-07-09_23h10.41.743,,,,,,,,58.8235294117647,001,,metalinguistic_conjunctives_final,,,,2024.1.5,,,,,,89.512,return,,1.7150000000000034,,,,,,,PARTICIPANT,,,,,,,,,,87.69999999999999,,,,,,2024-07-09_23h10.32.341,,,,,,001
﻿,Win32,,,,,5.994399999998507,Metalinguistic Conjunctives,,return,,,,2024-07-09_20h12.39.761,,,,,0.0004999999999881766,,,59.523809523799216,001,,metalinguistic_conjunctives_final,,,,2024.1.5,,,,,,,,,,,,,,,,PARTICIPANT,,,,,,,,,,,,,,,,2024-07-09_20h11.15.920,,,,,6.019799999997019,001
﻿,Win32,,-0.2907407972547743,,,,Metalinguistic Conjunctives,,,,6.0201999999992495,,2024-07-09_20h12.39.761,,,,,,,12.036799999997015,59.523809523799216,001,0,metalinguistic_conjunctives_final,,,,2024.1.5,,,,,,,,0,,-0.06111111111111111,,,,,,PARTICIPANT,,,,1,,,5.480300000000739,,,,,,,,,2024-07-09_20h11.15.920,,,,,,001
﻿,Win32,,,17.447899999998498,,,Metalinguistic Conjunctives,,,,,,2024-07-09_20h12.39.761,return,,,,,,,59.523809523799216,001,,metalinguistic_conjunctives_final,,,,2024.1.5,,,,,,,,,,,,,,,,PARTICIPANT,,,,,,,,12.03689999999851,,,,,,,,2024-07-09_20h11.15.920,5.389199999999249,,,,,001
﻿known_objects/baseball.png,Win32,31.19149999999999,,,0,,Metalinguistic Conjunctives,17.470699999999255,,right,,left,2024-07-09_20h12.39.761,,,31.675899999998506,image_2,,0,,59.523809523799216,001,,metalinguistic_conjunctives_final,26.344899999998503,and,,2024.1.5,0,-0.46574071248372395,0,0,Choose the beag.,,,,,,,audio/audio_prompt/amp_normed/Baseball_and_Beag.wav,NOUN-2-600DPI/2015-600.jpg,1,baseball,PARTICIPANT,1,31.191899999998498,0,,known_objects/baseball.png,0.20277777777777778,,,audio/audio_text/amp_normed/Baseball_and_Beag.wav,,-0.008333333333333333,beag,1,This is a baseball and a beag.,0,2024-07-09_20h11.15.920,,26.345399999998506,0,-0.07685186598036024,,001
﻿known_objects/camera.png,Win32,38.00709999999776,,,9,,Metalinguistic Conjunctives,31.676899999998497,,left,,right,2024-07-09_20h12.39.761,,,38.506899999998495,image_2,,0,,59.523809523799216,001,,metalinguistic_conjunctives_final,35.14149999999999,mutual_ex,,2024.1.5,0,0.4935185750325521,1,0,Choose the hux.,,,,,,,audio/audio_prompt/amp_normed/Camera.wav,NOUN-2-600DPI/2041-600.jpg,1,camera,PARTICIPANT,1,38.007199999999244,0,,known_objects/camera.png,-0.46111111111111114,,,audio/audio_text/amp_normed/Camera.wav,,-0.0037037319607204863,hux,1,This is a camera.,1,2024-07-09_20h11.15.920,,35.14179999999702,0,-0.008333333333333333,,001
